TimeStamp,v_Vehicle,pos_x,pos_z,v_EgoPerson,pos_x_left_foot,pos_z_left_foot,crossingDecisionToken,SubjectID,ScenarioID,dest_rel_dist,speed,rel_dist_vel,acc,const,dec,Velocity_gradient,v_to_vmax,sin_Angle,direction,left,central,right,dest,curr_dist_left_dec_x,curr_dist_left_acc_x,curr_dist_left_const_x,curr_dist_right_dec_x,curr_dist_right_acc_x,curr_dist_right_const_x,curr_dist_central_dec_x,curr_dist_central_acc_x,curr_dist_central_const_x,curr_dist_left_dec_z,curr_dist_left_acc_z,curr_dist_left_const_z,curr_dist_right_dec_z,curr_dist_right_acc_z,curr_dist_right_const_z,curr_dist_central_dec_z,curr_dist_central_acc_z,curr_dist_central_const_z,dest_dist_left_dec,dest_dist_left_acc,dest_dist_left_const,dest_dist_right_dec,dest_dist_right_acc,dest_dist_right_const,dest_dist_central_dec,dest_dist_central_acc,dest_dist_central_const,car_dist_left_dec,car_dist_left_acc,car_dist_left_const,car_dist_right_dec,car_dist_right_acc,car_dist_right_const,car_dist_central_dec,car_dist_central_acc,car_dist_central_const,v_Vehicle_Effect,Angle_Left_Acc,Angle_Left_Dec,Angle_Left_Const,Angle_Right_Acc,Angle_Right_Dec,Angle_Right_Const,Angle_Central_Acc,Angle_Central_Dec,Angle_Central_Const,Choice_Literal,Choice,PrevChoice_1,PrevChoice_2,PrevChoice_3,PrevChoice_4,PrevChoice_5,PrevChoice_6,PrevChoice_7,PrevChoice_8,PrevChoice_9,InvID
23.47667,8.48565,30.08589,368.8263,1.560337,-140.3979,400.9343,FALSE,1,1,11.44637703,Const,20.44404002,0,1,0,-0.002727903,1.170730701,0,C,0,1,0,2,-140.668221,-142.019826,-141.29897,-140.2677979,-139.6172874,-139.9642263,-140.4970497,-140.9927984,-140.7283991,401.0644021,401.7149126,401.3679737,401.204621,402.556226,401.83537,401.2174419,402.6331514,401.8781063,11.17463953,9.840613658,10.54654537,11.57518079,12.30898559,11.89973772,11.34603259,10.95431412,11.13983431,0,0,0,0,0,0,0,0,0,0,0.431965924,0.431965924,0.431965924,2.002762251,2.002762251,2.002762251,1.217364088,1.217364088,1.217364088,C-Const,6,0,0,0,0,0,0,0,0,0,1
24.58778,7.725297,21.54691,371.0516,1.557306,-142.0172,400.7875,FALSE,1,1,9.831270746,Const,21.51957727,0,1,0,-0.681032207,1.168456522,75.88100097,L,1,0,0,2,-142.2093131,-143.1698784,-142.6575769,-142.2476183,-143.3997095,-142.7852608,-142.3159748,-143.8098485,-143.0131159,400.5570817,399.4049905,400.0194392,400.9796131,401.9401784,401.4278769,400.7604141,400.6249848,400.6972138,9.650071526,8.841598286,9.251335274,9.596172572,8.482319597,9.062525198,9.53367226,8.048354991,8.839907166,0,0,0,0,0,0,0,0,0,0,0.910072219,0.910072219,0.910072219,0.660724108,0.660724108,0.660724108,0.124674056,0.124674056,0.124674056,L-Const,4,0,0,0,0,0,1,0,0,0,2
25.69889,8.571273,12.47281,373.3869,0.04693361,-143.6357,400.8009,FALSE,1,1,8.213369379,Dec,18.49168736,0,0,1,-0.065474165,0.035214584,-5.654428785,C,0,1,0,2,-143.849581,-144.918986,-144.3486367,-143.8460685,-144.8979112,-144.3369284,-143.9356897,-145.4356383,-144.6356657,400.5905315,399.5386888,400.0996716,401.014781,402.084186,401.5138367,400.8033837,400.8158022,400.809179,8.010921304,7.102955587,7.563785329,7.997381405,7.01081117,7.515872926,7.913520005,6.414484421,7.213920172,0,0,0,0,0,0,0,0,0,0,0.81650409,0.81650409,0.81650409,0.754292237,0.754292237,0.754292237,0.031105927,0.031105927,0.031105927,C-Dec,9,0,0,0,1,0,0,0,0,0,3
26.81,8.278091,3.463806,375.664,1.411808,-145.2605,400.5697,FALSE,1,1,6.605523295,Acc,18.21618883,1,0,0,0.667083093,1.059288455,8.572860411,C,0,1,0,2,-145.4406323,-146.341294,-145.8609411,-145.5004007,-146.6999042,-146.060169,-145.5575082,-147.0425492,-146.2505273,400.3297993,399.1302958,399.770031,400.7498323,401.650494,401.1701411,400.5274374,400.3161243,400.4288246,6.451178325,5.851625475,6.133146333,6.353344514,5.169644969,5.782712719,6.313468217,4.867709481,5.63525342,0,0,0,0,0,0,0,0,0,0,1.010802719,1.010802719,1.010802719,0.559993607,0.559993607,0.559993607,0.225404556,0.225404556,0.225404556,C-Acc,3,0,0,0,0,0,0,0,0,1,4
27.92111,8.262233,-5.422836,377.8433,1.529339,-146.9452,400.5492,FALSE,1,1,4.931150602,Const,17.34788432,0,1,0,-0.058887059,1.147472706,-7.401343932,C,0,1,0,2,-147.1547352,-148.2024114,-147.6436508,-147.1598974,-148.2333846,-147.6608581,-147.2451778,-148.7450668,-147.945126,400.3345026,399.2610154,399.8335419,400.7587352,401.8064114,401.2476508,400.5455498,400.5272986,400.5370326,4.754029206,4.089441387,4.392956981,4.697049869,3.673204803,4.183660713,4.633806457,3.154638234,3.941569019,0,0,0,0,0,0,0,0,0,0,0.914457841,0.914457841,0.914457841,0.656338486,0.656338486,0.656338486,0.129059678,0.129059678,0.129059678,C-Const,6,0,0,1,0,0,0,0,0,0,5
29.03222,8.295075,-14.39449,379.9411,1.280948,-148.0947,400.4758,FALSE,1,1,3.80368982,Const,16.30702031,0,1,0,0.747992548,0.96110337,2.956435814,C,0,1,0,2,-148.292883,-149.2837978,-148.7553099,-148.3199188,-149.4460128,-148.8454293,-148.3940903,-149.8910416,-149.0926676,400.2505812,399.1244872,399.7250707,400.673983,401.6648978,401.1364099,400.4566828,400.3610967,400.4120759,3.655760589,3.247650177,3.389663755,3.551446575,2.456899553,2.997295115,3.512637449,2.095578637,2.840764258,0,0,0,0,0,0,0,0,0,0,1.020494749,1.020494749,1.020494749,0.550301577,0.550301577,0.550301577,0.235096586,0.235096586,0.235096586,C-Const,6,0,0,0,0,0,1,0,0,0,6
30.14333,8.259208,-23.36247,381.8763,3.191543,-148.6817,399.6718,FALSE,1,1,3.478746506,Acc,15.32549084,1,0,0,-0.375183624,2.39463486,50.21324104,L,1,0,0,2,-148.6354584,-148.4042507,-148.5275615,-148.9781148,-150.4601886,-149.6697492,-148.8585992,-149.7430951,-149.2713639,399.3753852,397.8933114,398.6837508,399.6255584,399.3943507,399.5176615,399.4295054,398.2180323,398.8641513,3.653094756,4.718285866,4.116603462,3.232966868,2.214511769,2.702406764,3.431790568,3.585349742,3.423454604,0,0,0,0,0,0,0,0,0,0,2.156283164,2.156283164,2.156283164,0.585486838,0.585486838,0.585486838,1.370885001,1.370885001,1.370885001,L-Acc,1,0,0,0,0,0,1,0,0,0,7
31.25445,8.295467,-32.40031,383.6076,0.4471618,-148.5531,398.3707,FALSE,1,1,16.28588718,Dec,14.11460396,0,0,1,-0.823999948,0.335508321,41.77791209,L,1,0,0,7,-148.3211313,-147.1612877,-147.7798709,-148.743338,-149.6945282,-149.1872268,-148.523592,-148.3760517,-148.4547398,398.180462,397.2292718,397.7365732,398.1387313,396.9788877,397.5974709,398.0721547,396.5794284,397.3755491,16.1283565,15.4043077,15.77686056,16.03261483,14.79249218,15.44815562,15.99356893,14.53667351,15.31264862,116.8332363,115.5665693,116.2414339,117.2469784,118.053907,117.6218535,117.0206817,116.6989331,116.8682468,8.295467,1.010103521,1.010103521,1.010103521,0.560692805,0.560692805,0.560692805,0.224705358,0.224705358,0.224705358,L-Dec,7,1,0,0,0,0,0,0,0,0,8
32.36555,8.302413,-41.4886,385.1048,1.360368,-148.4649,397.2695,FALSE,1,1,15.20622359,Acc,12.9680042,1,0,0,-0.201204595,1.020692698,-1.065451019,C,0,1,0,7,-148.2365088,-147.0945527,-147.7035959,-148.6594185,-149.632011,-149.113295,-148.4409484,-148.3211902,-148.3850612,397.0749815,396.102389,396.621105,397.0411088,395.8991527,396.5081959,396.9704577,395.475246,396.2726922,15.04788076,14.32431894,14.69560595,14.953615,13.71923574,14.37128344,14.9136635,13.4557785,14.23222798,107.4169506,106.1770418,106.8374964,107.8334818,108.6807959,108.2271335,107.6085436,107.3347497,107.4782547,8.302413,1.006376444,1.006376444,1.006376444,0.564419883,0.564419883,0.564419883,0.220978281,0.220978281,0.220978281,C-Acc,3,0,0,0,0,0,0,1,0,0,9
33.47667,8.319378,-50.62756,386.3943,0,-148.8929,395.7296,FALSE,1,1,13.6230228,Dec,11.86480229,0,0,1,-0.539970081,0,-20.11204414,R,0,0,1,7,-148.7453222,-148.0074331,-148.400974,-149.1540911,-150.4600466,-149.763537,-148.9732367,-149.3749203,-149.1606891,395.4684089,394.1624534,394.858963,395.5820222,394.8441331,395.237674,395.4405567,393.9953404,394.7661224,13.38361891,12.22676492,12.83491723,13.4459832,12.63063872,13.05038175,13.32625295,11.84484511,12.63438333,98.53646385,97.68922098,98.139141,98.95398713,100.1894458,99.52962974,98.76085708,99.03947187,98.88814356,8.319378,0.640140587,0.640140587,0.640140587,0.93065574,0.93065574,0.93065574,0.145257577,0.145257577,0.145257577,R-Dec,8,0,0,1,0,0,0,0,0,0,10
34.58778,8.347919,-59.82776,387.5182,0.1604166,-148.8929,395.7296,FALSE,1,1,13.6230228,Const,10.71439072,0,1,0,-9.23E-16,0.120361588,0,C,0,1,0,7,-148.8929,-148.8929,-148.8929,-148.8929,-148.8929,-148.8929,-148.8929,-148.8929,-148.8929,395.7296,395.7296,395.7296,395.7296,395.7296,395.7296,395.7296,395.7296,395.7296,13.6230228,13.6230228,13.6230228,13.6230228,13.6230228,13.6230228,13.6230228,13.6230228,13.6230228,89.44286586,89.44286586,89.44286586,89.44286586,89.44286586,89.44286586,89.44286586,89.44286586,89.44286586,8.347919,0,0,0,0,0,0,0,0,0,C-Const,6,0,0,0,0,0,0,0,1,0,11
35.69889,8.32118,-69.04113,388.4997,0,-148.8929,395.7296,FALSE,1,1,13.6230228,Dec,9.635460955,0,0,1,-0.058095396,0,0,C,0,1,0,7,-148.8929,-148.8929,-148.8929,-148.8929,-148.8929,-148.8929,-148.8929,-148.8929,-148.8929,395.7296,395.7296,395.7296,395.7296,395.7296,395.7296,395.7296,395.7296,395.7296,13.6230228,13.6230228,13.6230228,13.6230228,13.6230228,13.6230228,13.6230228,13.6230228,13.6230228,80.17840499,80.17840499,80.17840499,80.17840499,80.17840499,80.17840499,80.17840499,80.17840499,80.17840499,8.32118,0,0,0,0,0,0,0,0,0,C-Dec,9,0,0,0,0,0,1,0,0,0,12
36.81,8.313345,-78.22045,389.3494,0.03131585,-148.8929,395.7296,FALSE,1,1,13.6230228,Const,8.535657174,0,1,0,0.006302198,0.02349648,0,C,0,1,0,7,-148.8929,-148.8929,-148.8929,-148.8929,-148.8929,-148.8929,-148.8929,-148.8929,-148.8929,395.7296,395.7296,395.7296,395.7296,395.7296,395.7296,395.7296,395.7296,395.7296,13.6230228,13.6230228,13.6230228,13.6230228,13.6230228,13.6230228,13.6230228,13.6230228,13.6230228,70.95986289,70.95986289,70.95986289,70.95986289,70.95986289,70.95986289,70.95986289,70.95986289,70.95986289,8.313345,0,0,0,0,0,0,0,0,0,C-Const,6,0,0,0,0,0,0,0,0,1,13
37.92111,8.349944,-87.46397,390.0553,0.01400487,-148.8929,395.7296,FALSE,1,1,13.6230228,Dec,7.388126908,0,0,1,-0.004905189,0.010507942,0,C,0,1,0,7,-148.8929,-148.8929,-148.8929,-148.8929,-148.8929,-148.8929,-148.8929,-148.8929,-148.8929,395.7296,395.7296,395.7296,395.7296,395.7296,395.7296,395.7296,395.7296,395.7296,13.6230228,13.6230228,13.6230228,13.6230228,13.6230228,13.6230228,13.6230228,13.6230228,13.6230228,61.69044595,61.69044595,61.69044595,61.69044595,61.69044595,61.69044595,61.69044595,61.69044595,61.69044595,8.349944,0,0,0,0,0,0,0,0,0,C-Dec,9,0,0,0,0,0,1,0,0,0,14
39.03222,8.337421,-96.70979,390.5767,0.02041544,-148.8929,395.7296,FALSE,1,1,13.6230228,Const,6.289343942,0,1,0,0.003681602,0.015317834,0,C,0,1,0,7,-148.8929,-148.8929,-148.8929,-148.8929,-148.8929,-148.8929,-148.8929,-148.8929,-148.8929,395.7296,395.7296,395.7296,395.7296,395.7296,395.7296,395.7296,395.7296,395.7296,13.6230228,13.6230228,13.6230228,13.6230228,13.6230228,13.6230228,13.6230228,13.6230228,13.6230228,52.43690826,52.43690826,52.43690826,52.43690826,52.43690826,52.43690826,52.43690826,52.43690826,52.43690826,8.337421,0,0,0,0,0,0,0,0,0,C-Const,6,0,0,0,0,0,0,0,0,1,15
40.14333,8.268929,-105.9082,390.931,0.0221862,-148.8929,395.7296,FALSE,1,1,13.6230228,Const,5.230631039,0,1,0,0.020789926,0.016646446,0,C,0,1,0,7,-148.8929,-148.8929,-148.8929,-148.8929,-148.8929,-148.8929,-148.8929,-148.8929,-148.8929,395.7296,395.7296,395.7296,395.7296,395.7296,395.7296,395.7296,395.7296,395.7296,13.6230228,13.6230228,13.6230228,13.6230228,13.6230228,13.6230228,13.6230228,13.6230228,13.6230228,43.25171668,43.25171668,43.25171668,43.25171668,43.25171668,43.25171668,43.25171668,43.25171668,43.25171668,8.268929,0,0,0,0,0,0,0,0,0,C-Const,6,0,0,0,0,0,1,0,0,0,16
41.25444,8.224954,-115.0485,391.2042,0.06661523,-148.8929,395.7296,FALSE,1,1,13.6230228,Const,4.151465117,0,1,0,0.00932256,0.049981828,0,C,0,1,0,7,-148.8929,-148.8929,-148.8929,-148.8929,-148.8929,-148.8929,-148.8929,-148.8929,-148.8929,395.7296,395.7296,395.7296,395.7296,395.7296,395.7296,395.7296,395.7296,395.7296,13.6230228,13.6230228,13.6230228,13.6230228,13.6230228,13.6230228,13.6230228,13.6230228,13.6230228,34.14560962,34.14560962,34.14560962,34.14560962,34.14560962,34.14560962,34.14560962,34.14560962,34.14560962,8.224954,0,0,0,0,0,0,0,0,0,C-Const,6,0,0,0,0,0,1,0,0,0,17
42.36555,7.125973,-123.4153,391.4281,0.04290298,-148.8929,395.7296,FALSE,1,1,13.6230228,Const,3.625914597,0,1,0,-0.023320894,0.032190377,0,C,0,1,0,7,-148.8929,-148.8929,-148.8929,-148.8929,-148.8929,-148.8929,-148.8929,-148.8929,-148.8929,395.7296,395.7296,395.7296,395.7296,395.7296,395.7296,395.7296,395.7296,395.7296,13.6230228,13.6230228,13.6230228,13.6230228,13.6230228,13.6230228,13.6230228,13.6230228,13.6230228,25.83816952,25.83816952,25.83816952,25.83816952,25.83816952,25.83816952,25.83816952,25.83816952,25.83816952,7.125973,0,0,0,0,0,0,0,0,0,C-Const,6,0,0,0,0,0,1,0,0,0,18
43.47667,5.548362,-130.119,391.4308,0.0147908,-148.8929,395.7296,FALSE,1,1,13.6230228,Dec,3.471254544,0,0,1,-0.014062449,0.011097631,0,C,0,1,0,7,-148.8929,-148.8929,-148.8929,-148.8929,-148.8929,-148.8929,-148.8929,-148.8929,-148.8929,395.7296,395.7296,395.7296,395.7296,395.7296,395.7296,395.7296,395.7296,395.7296,13.6230228,13.6230228,13.6230228,13.6230228,13.6230228,13.6230228,13.6230228,13.6230228,13.6230228,19.25977681,19.25977681,19.25977681,19.25977681,19.25977681,19.25977681,19.25977681,19.25977681,19.25977681,5.548362,0,0,0,0,0,0,0,0,0,C-Dec,9,0,0,0,0,0,1,0,0,0,19
44.58778,3.968893,-135.0074,391.3419,0.01165276,-148.8929,395.7296,FALSE,1,1,13.6230228,Const,3.669095248,0,1,0,0.646065286,0.008743139,0,C,0,1,0,7,-148.8929,-148.8929,-148.8929,-148.8929,-148.8929,-148.8929,-148.8929,-148.8929,-148.8929,395.7296,395.7296,395.7296,395.7296,395.7296,395.7296,395.7296,395.7296,395.7296,13.6230228,13.6230228,13.6230228,13.6230228,13.6230228,13.6230228,13.6230228,13.6230228,13.6230228,14.56224645,14.56224645,14.56224645,14.56224645,14.56224645,14.56224645,14.56224645,14.56224645,14.56224645,3.968893,0,0,0,0,0,0,0,0,0,C-Const,6,0,0,0,0,0,0,0,0,1,20
45.69889,2.362474,-138.0926,391.2658,1.45049,-148.8929,395.7296,FALSE,1,1,13.6230228,Acc,4.946679604,1,0,0,0.549182007,1.088311803,0,C,0,1,0,7,-148.8929,-148.8929,-148.8929,-148.8929,-148.8929,-148.8929,-148.8929,-148.8929,-148.8929,395.7296,395.7296,395.7296,395.7296,395.7296,395.7296,395.7296,395.7296,395.7296,13.6230228,13.6230228,13.6230228,13.6230228,13.6230228,13.6230228,13.6230228,13.6230228,13.6230228,11.68640195,11.68640195,11.68640195,11.68640195,11.68640195,11.68640195,11.68640195,11.68640195,11.68640195,2.362474,0,0,0,0,0,0,0,0,0,C-Acc,3,0,0,0,0,0,1,0,0,0,21
46.81,0.636104,-139.2738,391.2331,1.232056,-149.0647,394.799,FALSE,1,1,12.67833262,Const,16.38104199,0,1,0,0.046943597,0.924419394,0,C,0,1,0,7,-148.8946044,-148.0441263,-148.4977146,-149.3118184,-150.5474101,-149.8884278,-149.1191633,-149.3914798,-149.2462443,394.5518816,393.3162899,393.9752722,394.6289044,393.7784263,394.2320146,394.5039852,393.028911,393.8156172,12.45526039,11.39300129,11.94786296,12.48153746,11.56425848,12.03892226,12.37890313,10.88222707,11.68034818,10.17714049,9.014338771,9.622895036,10.5968533,11.55737735,11.03013206,10.37448159,10.27581539,10.30140968,0.636104,0.724450353,0.724450353,0.724450353,0.846345974,0.846345974,0.846345974,0.06094781,0.06094781,0.06094781,C-Const,6,0,0,1,0,0,0,0,0,0,22
47.92111,0.1900432,-139.39,391.2259,1.554809,-149.206,393.5943,TRUE,1,1,11.46539013,Const,53.13361195,0,1,0,0.106381456,1.166583008,3.77003402,C,0,1,0,7,-149.0200239,-148.0901436,-148.5860798,-149.4413995,-150.6183967,-149.9906649,-149.2409476,-149.4156857,-149.3224921,393.3589005,392.1819033,392.8096351,393.4083239,392.4784436,392.9743798,393.2963425,391.8065551,392.6011084,11.25641972,10.27939952,10.7855405,11.25410107,10.26415562,10.77747206,11.16539457,9.665420861,10.4654059,9.863419911,8.752510568,9.331457576,10.28560184,11.29804225,10.74389487,10.06617609,10.04248644,10.02724271,0.1900432,0.790763133,0.790763133,0.790763133,0.780033194,0.780033194,0.780033194,0.00536497,0.00536497,0.00536497,C-Const,6,0,0,0,0,0,1,0,0,0,23
49.03222,0.04356436,-139.5113,391.2179,1.468459,-149.2025,391.6893,FALSE,1,1,9.577900868,Const,222.7200896,0,1,0,-0.64519467,1.101794057,6.794959593,C,0,1,0,7,-148.9899786,-147.9273715,-148.4940953,-149.4142419,-150.4729516,-149.9083064,-149.2019488,-149.1991929,-149.2006627,391.4775581,390.4188484,390.9834936,391.4767786,390.4141715,390.9808953,391.3893005,389.889303,390.6893017,9.402596471,8.629715937,9.019144613,9.338412179,8.200897937,8.794053389,9.281311231,7.80227555,8.590189876,9.482234438,8.453918775,8.985853171,9.906325103,10.99107753,10.39970741,9.692164499,9.778570401,9.703770728,0.04356436,0.933951925,0.933951925,0.933951925,0.636844401,0.636844401,0.636844401,0.148553762,0.148553762,0.148553762,C-Const,6,0,0,0,0,0,1,0,0,0,24
50.14333,0.09827313,-139.4283,391.215,0.1210445,-149.1561,390.2855,FALSE,1,1,8.199812254,Dec,99.4382328,0,0,1,-0.008649009,0.090820452,1.787848573,C,0,1,0,7,-148.9370759,-147.8419557,-148.4260198,-149.3611084,-150.3861507,-149.8394615,-149.1461895,-149.0966368,-149.1230649,390.0804916,389.0554493,389.6021385,390.0664759,388.9713557,389.5554198,389.9856637,388.4864825,389.2860458,8.040601534,7.377196835,7.701824097,7.949730603,6.760524758,7.380689211,7.906675492,6.450465026,7.224881231,9.576216863,8.686383654,9.141131448,9.998989507,11.18518804,10.54260357,9.795337839,10.04597157,9.884803019,0.09827313,0.995786138,0.995786138,0.995786138,0.575010189,0.575010189,0.575010189,0.210387975,0.210387975,0.210387975,C-Dec,9,0,0,0,0,0,1,0,0,0,25
51.25444,0.04842812,-139.3426,391.2119,1.449239,-149.1836,388.7381,FALSE,1,1,6.676362127,Acc,209.530444,1,0,0,0.625368616,1.08737317,-2.911255161,C,0,1,0,7,-148.9752708,-147.9336249,-148.4891694,-149.3994679,-150.4788074,-149.9031597,-149.1889307,-149.2155841,-149.2013689,388.5222321,387.4428926,388.0185403,388.5297708,387.4881249,388.0436694,388.4381474,386.9383842,387.7382579,6.514486401,5.870446502,6.177071903,6.42906985,5.275279951,5.871192741,6.382399211,4.923521293,5.698933181,10.00113296,9.381424519,9.687996581,10.40838167,11.74230032,11.02556601,10.22956165,10.75819466,10.45282328,0.04842812,0.981818153,0.981818153,0.981818153,0.588978174,0.588978174,0.588978174,0.19641999,0.19641999,0.19641999,C-Acc,3,0,0,0,0,0,0,0,0,1,26
52.36556,0.1346351,-139.4639,391.2039,1.510746,-149.4281,387.3549,FALSE,1,1,5.273087665,Const,79.33862732,0,1,0,-0.525578864,1.13352226,-9.006145059,C,0,1,0,7,-149.2561312,-148.3962874,-148.8548708,-149.6739185,-150.9030111,-150.2474951,-149.4803197,-149.741418,-149.6021656,387.1090815,385.8799889,386.5355049,387.1829312,386.3230874,386.7816708,387.0594798,385.5823787,386.3701659,5.076626158,4.27849638,4.661300134,5.054694,4.119747687,4.581162141,4.973480141,3.476458065,4.274610021,10.61392158,10.39863333,10.48733737,10.97327061,12.43686434,11.65512908,10.83996688,11.71447303,11.2316256,0.1346351,0.835079679,0.835079679,0.835079679,0.735716648,0.735716648,0.735716648,0.049681515,0.049681515,0.049681515,C-Const,6,0,0,1,0,0,0,0,0,0,27
53.47667,0.01794455,-139.487,391.1981,0.2812935,-149.4144,386.2924,FALSE,1,1,4.247700142,Dec,617.0872911,0,0,1,-0.67983638,0.211056289,10.76302151,L,1,0,0,7,-149.1995506,-148.1253034,-148.6982352,-149.6237794,-150.6706762,-150.1123312,-149.4105321,-149.3911925,-149.401507,386.0830206,385.0361238,385.5944688,386.0775506,385.0033034,385.5762352,385.9924249,384.4925496,385.2924831,4.115316222,3.755021056,3.879758607,3.985346981,2.789831686,3.397509385,3.961753698,2.580343327,3.304251208,10.97714332,10.61085469,10.78181514,11.35668625,12.7847612,12.02094121,11.20604935,11.960662,11.54009354,0.01794455,1.081826712,1.081826712,1.081826712,0.488969615,0.488969615,0.488969615,0.296428549,0.296428549,0.296428549,L-Dec,7,0,0,0,0,0,1,0,0,0,28
54.58778,0.07289474,-139.4152,391.1953,0,-149.543,385.2247,FALSE,1,1,3.191468667,Dec,161.2834768,0,0,1,0.796861022,0,-7.606690558,C,0,1,0,7,-149.3577572,-148.4315433,-148.9255241,-149.7789769,-150.9588616,-150.3295898,-149.5788745,-149.7582468,-149.6625815,384.9887231,383.8088384,384.4381102,385.0394572,384.1132433,384.6072241,384.9268527,383.4376161,384.2318756,3.040938323,2.693784335,2.785363715,2.942793403,1.932055078,2.408459008,2.899337993,1.486473528,2.225855809,11.72075259,11.65565364,11.66644237,12.05413923,13.54295573,12.74859399,11.94126084,12.92904776,12.38943532,0.07289474,1.003996801,1.003996801,1.003996801,0.566799525,0.566799525,0.566799525,0.218598638,0.218598638,0.218598638,C-Dec,9,0,0,0,0,0,0,1,0,0,29
55.69889,0.03821111,-139.411,391.1904,2.052094,-149.5876,384.2102,FALSE,1,1,2.239206292,Acc,322.9541557,1,0,0,0.506366606,1.539699082,4.350705661,C,0,1,0,7,-149.3849895,-148.3719372,-148.9122318,-149.8088442,-150.9150652,-150.3250807,-149.600776,-149.6666562,-149.6315201,383.9889558,382.8827348,383.4727193,384.0075895,382.9945372,383.5348318,383.9104895,382.4119369,383.211165,2.152259742,2.328756725,2.107439697,1.961146185,0.840441587,1.349398615,1.97000264,0.956680883,1.391736359,12.30208379,12.21948019,12.24075161,12.6375603,14.12500208,13.33134959,12.52312392,13.49962587,12.96638822,0.03821111,1.211961958,1.211961958,1.211961958,0.358834369,0.358834369,0.358834369,0.426563794,0.426563794,0.426563794,C-Acc,3,0,0,0,0,0,0,0,0,1,30
56.81,1.597594,-140.6054,391.1497,1.125258,-149.8331,383.0637,FALSE,1,1,1.146195673,Const,7.679813156,0,1,0,0.422496422,0.844288181,-9.568977257,C,0,1,0,7,-149.6700871,-148.8550227,-149.2897237,-150.0849468,-151.3441806,-150.6725892,-149.895915,-150.2099902,-150.0424835,382.8118532,381.5526194,382.2242108,382.9006871,382.0856227,382.5203237,382.7703499,381.3035995,382.0858664,1.107626589,1.868742188,1.313013705,0.859764891,0.752563222,0.313902869,0.899297775,0.991764253,0.574750163,12.31617803,12.65544274,12.45318579,12.56614582,14.05271888,13.25950356,12.51108219,13.75477549,13.08478598,1.597594,1.310602087,1.310602087,1.310602087,0.26019424,0.26019424,0.26019424,0.525203923,0.525203923,0.525203923,C-Const,6,0,0,1,0,0,0,0,0,0,31
57.92111,4.002567,-144.4263,390.9932,2.990974,-151.7031,382.0609,FALSE,1,1,1.111040827,Acc,2.878450065,1,0,0,0.298091998,2.244146673,-49.7110436,R,0,0,1,7,-151.7897958,-152.2232751,-151.9920862,-151.9903,-153.4262999,-152.6604333,-151.9674843,-153.2894057,-152.5843809,381.7737,380.3377001,381.1035667,382.1475958,382.5810751,382.3498862,381.9191222,381.210233,381.5883072,1.266224661,2.479494052,1.778797991,1.389202346,2.847321609,2.062195395,1.396340243,2.868194179,2.078202645,11.79916315,13.20350326,12.45174552,11.63867727,12.31924689,11.93766414,11.79865877,13.20079867,12.45015231,4.002567,2.002475168,2.002475168,2.002475168,2.709913812,2.709913812,2.709913812,2.787873332,2.787873332,2.787873332,R-Acc,2,0,0,0,0,0,1,0,0,0,32
59.03222,5.885129,-150.4703,390.7321,1.787684,-153.6057,381.6821,FALSE,1,1,19.11908067,Const,1.627448909,0,1,0,-0.608190908,1.34131059,-16.94261269,R,0,0,1,6,-153.772327,-154.6054621,-154.1611234,-153.8551703,-155.1025219,-154.4372677,-153.8999252,-155.3710515,-154.5864508,381.4326297,380.1852781,380.8505323,381.848727,382.6818621,382.2375234,381.6235209,381.3306256,381.4868365,18.93777183,18.07868861,18.52671313,18.8820935,17.72581451,18.33630122,18.82165888,17.33588267,18.12800511,0,0,0,0,0,0,0,0,0,0,0.915564904,0.915564904,0.915564904,0.655231422,0.655231422,0.655231422,0.130166741,0.130166741,0.130166741,R-Const,5,0,1,0,0,0,0,0,0,0,33
60.14333,7.802499,-158.6133,390.3303,1.63944,-154.5554,381.5731,FALSE,1,1,18.16430078,Const,1.236999735,0,1,0,-0.715160785,1.230082181,-4.71275457,C,0,1,0,6,-154.7419602,-155.6747614,-155.1772675,-154.7903368,-155.9650205,-155.3385225,-154.8534434,-156.3436603,-155.5488779,381.3381632,380.1634795,380.7899775,381.7596602,382.6924614,382.1949675,381.5388926,381.3678558,381.4590755,17.96451131,17.00978792,17.50946321,17.94287203,16.87219095,17.43534541,17.86468864,16.3668411,17.16564634,0,0,0,0,0,0,0,0,0,0,0.835832416,0.835832416,0.835832416,0.734963911,0.734963911,0.734963911,0.050434252,0.050434252,0.050434252,C-Const,6,0,0,0,0,1,0,0,0,0,34
61.25444,9.85144,-168.9692,389.6346,0.1984394,-155.9387,381.3042,FALSE,1,1,16.76763126,Dec,1.56989763,0,0,1,-0.274038447,0.148890334,4.453182955,C,0,1,0,6,-156.1064555,-156.945233,-156.497885,-156.1874129,-157.4309772,-156.7677429,-156.2331876,-157.7056256,-156.9203254,381.0554871,379.8119228,380.4751571,381.4719555,382.310733,381.863385,381.2469545,380.9607269,381.1133816,16.58864078,15.7489913,16.18492943,16.52916007,15.36917385,15.98079179,16.47057289,14.98703902,15.77786961,0,0,0,0,0,0,0,0,0,0,0.924296497,0.924296497,0.924296497,0.646499829,0.646499829,0.646499829,0.138898334,0.138898334,0.138898334,C-Dec,9,0,0,0,0,0,1,0,0,0,35
62.36556,11.77275,-181.4584,388.2803,1.030484,-157.308,380.9954,FALSE,1,1,15.38567767,Acc,2.142678415,1,0,0,0.62349581,0.77317865,1.708010369,C,0,1,0,6,-157.4682678,-158.269607,-157.8422261,-157.5616025,-158.8296149,-158.1533416,-157.6006505,-159.0639031,-158.2835017,380.7417975,379.4737851,380.1500584,381.1556678,381.957007,381.5296261,380.9294024,380.5994146,380.7754081,15.21795653,14.44374671,14.84282619,15.13926075,13.93871982,14.57210372,15.09084316,13.62005498,14.40372559,0,0,0,0,0,0,0,0,0,0,0.969426464,0.969426464,0.969426464,0.601369862,0.601369862,0.601369862,0.184028301,0.184028301,0.184028301,C-Acc,3,0,0,0,0,0,0,0,0,1,36
63.47667,13.75393,-195.9604,385.7209,1.583993,-158.8635,380.7569,FALSE,1,1,13.82344615,Acc,2.721225653,1,0,0,0.212673363,1.188479947,-3.991460808,C,0,1,0,6,-159.0410318,-159.9286908,-159.4552727,-159.1053315,-160.3144888,-159.6696049,-159.1600346,-160.6427077,-159.8519487,380.5150685,379.3059112,379.9507951,380.9344318,381.8220908,381.3486727,380.7114333,380.4840996,380.6053442,13.64204038,12.80208095,13.23554573,13.58732767,12.44807305,13.04659711,13.52592945,12.04019465,12.8321735,0,0,0,0,0,0,0,0,0,0,0.912753692,0.912753692,0.912753692,0.658042635,0.658042635,0.658042635,0.127355528,0.127355528,0.127355528,C-Acc,3,0,0,1,0,0,0,0,0,0,37
64.58778,15.2614,-212.1276,381.7575,1.503091,-160.1989,380.5413,FALSE,1,1,12.48444598,Const,3.40355014,0,1,0,-0.011352611,1.127778666,0.454152814,C,0,1,0,6,-160.3745094,-161.2525562,-160.7842646,-160.4421311,-161.6582864,-161.0096702,-160.4950649,-161.9758895,-161.1861164,380.2980689,379.0819136,379.7305298,380.7169094,381.5949562,381.1266646,380.4934842,380.2544055,380.3819142,12.30873942,11.50753838,11.91806642,12.2443089,11.08745442,11.69474618,12.18789232,10.7080044,11.49662925,0,0,0,0,0,0,0,0,0,0,0.935293837,0.935293837,0.935293837,0.63550249,0.63550249,0.63550249,0.149895674,0.149895674,0.149895674,C-Const,6,0,0,1,0,0,0,0,0,0,38
65.69889,15.22458,-228.0202,375.8702,1.558765,-161.3167,380.3365,FALSE,1,1,11.36626627,Const,4.391113511,0,1,0,-0.1639244,1.169551219,1.211160979,C,0,1,0,6,-161.4871289,-162.3392735,-161.8847964,-161.5635886,-162.7980316,-162.139662,-161.6117881,-163.0872283,-162.3003268,380.0896114,378.8551684,379.513538,380.5069289,381.3590735,380.9045964,380.2824348,380.0121091,380.1562828,11.20027832,10.46027544,10.83540927,11.11949722,9.929716316,10.55443228,11.07169724,9.603896835,10.38557872,0,0,0,0,0,0,0,0,0,0,0.973450287,0.973450287,0.973450287,0.59734604,0.59734604,0.59734604,0.188052123,0.188052123,0.188052123,C-Const,6,0,0,0,0,0,1,0,0,0,39
66.81001,15.01096,-243.1666,368.7975,1.138809,-162.6718,380.3452,FALSE,1,1,10.01113848,Const,5.417301228,0,1,0,-0.598929151,0.854455581,-10.75025563,R,0,0,1,6,-162.8852896,-163.9527374,-163.3834319,-162.8825658,-163.9363946,-163.3743525,-162.9717938,-164.4717629,-163.6717794,380.1344342,379.0806054,379.6426475,380.5586896,381.6261374,381.0568319,380.347126,380.3567561,380.3516201,9.801406844,8.831250684,9.331229035,9.801197856,8.829858912,9.330497286,9.711138514,8.211138733,9.011138607,0,0,0,0,0,0,0,0,0,0,0.785880428,0.785880428,0.785880428,0.784915899,0.784915899,0.784915899,0.000482265,0.000482265,0.000482265,R-Const,5,0,0,0,0,0,1,0,0,0,40
67.92111,14.90732,-257.8322,361.0695,0.2278215,-163.827,380.253,FALSE,1,1,8.857168858,Dec,6.435939485,0,0,1,0.203228337,0.17093591,4.93112079,C,0,1,0,6,-164.0215824,-164.9944942,-164.4756079,-164.0553368,-165.1970209,-164.5881227,-164.126049,-165.6212941,-164.8238301,380.0246632,378.8829791,379.4918773,380.4475824,381.4204942,380.9016079,380.229132,380.109792,380.17344,8.669877483,7.839225247,8.258766541,8.627427377,7.553000592,8.109232396,8.558654283,7.06796844,7.862560016,0,0,0,0,0,0,0,0,0,0,0.883254598,0.883254598,0.883254598,0.687541728,0.687541728,0.687541728,0.097856435,0.097856435,0.097856435,C-Dec,9,0,0,0,0,1,0,0,0,0,41
69.03223,14.89206,-271.9277,352.4627,1.590468,-165.1663,380.1963,FALSE,1,1,7.519560689,Acc,7.406953832,1,0,0,0.60417853,1.19333818,-2.139075388,C,0,1,0,6,-165.3692695,-166.384117,-165.842865,-165.3872149,-166.4917893,-165.9026829,-165.4660315,-166.9646891,-166.1654051,379.9753851,378.8708107,379.4599171,380.3992695,381.414117,380.872865,380.1836107,380.1201642,380.1540023,7.326589381,6.48494464,6.906098004,7.295500607,6.271125086,6.795506857,7.22035467,5.725571112,6.522490958,0,0,0,0,0,0,0,0,0,0,0.856703564,0.856703564,0.856703564,0.714092763,0.714092763,0.714092763,0.071305401,0.071305401,0.071305401,C-Acc,3,0,0,0,0,0,0,0,0,1,42
70.14333,15.0646,-285.0667,342.2098,1.570464,-166.2353,380.0767,FALSE,1,1,6.456232688,Const,8.278938631,0,1,0,-0.062553311,1.178329053,3.959519088,C,0,1,0,6,-166.4225305,-167.3586829,-166.8594016,-166.469703,-167.6417177,-167.0166432,-166.5334399,-168.0241392,-167.2290996,379.842297,378.6702823,379.2953568,380.2639305,381.2000829,380.7008016,380.043344,379.8765642,379.9655134,6.286247661,5.602388362,5.929826106,6.214816435,5.101858224,5.673295621,6.160438988,4.689493424,5.472035016,0,0,0,0,0,0,0,0,0,0,0.949129507,0.949129507,0.949129507,0.62166682,0.62166682,0.62166682,0.163731343,0.163731343,0.163731343,C-Const,6,0,0,1,0,0,0,0,0,0,43
71.25445,15.03835,-297.0528,330.5478,1.451459,-167.5149,380.0175,FALSE,1,1,5.183011391,Const,9.220599842,0,1,0,-0.048088686,1.08903885,-3.734850369,C,0,1,0,6,-167.7170017,-168.7275101,-168.1885723,-167.7366091,-168.8451544,-168.2539302,-167.8145795,-169.3129767,-168.5138315,379.7957909,378.6872456,379.2784698,380.2196017,381.2301101,380.6911723,380.0036355,379.934313,379.971285,5.004069663,4.315813221,4.635438935,4.949921515,3.923302514,4.437415932,4.88541124,3.40373655,4.192341441,0,0,0,0,0,0,0,0,0,0,0.908262448,0.908262448,0.908262448,0.662533878,0.662533878,0.662533878,0.122864285,0.122864285,0.122864285,C-Const,6,0,0,0,0,0,1,0,0,0,44
72.36555,14.97775,-301.0081,326.2811,1.463598,-168.8079,379.672,FALSE,1,1,3.945260996,Const,9.519085014,0,1,0,0.043919,1.098146818,12.31150318,L,1,0,0,6,-168.9580797,-169.7089779,-169.3084988,-169.0676038,-170.3661229,-169.6735794,-169.0977314,-170.5468883,-169.7740046,379.4122962,378.1137771,378.8063206,379.8221797,380.5730779,380.1725988,379.5945547,379.2073283,379.4138491,3.857046585,3.759711227,3.737757496,3.663267248,2.322012048,3.018812074,3.677496746,2.453257481,3.075940663,0,0,0,0,0,0,0,0,0,0,1.235783865,1.235783865,1.235783865,0.335012462,0.335012462,0.335012462,0.450385701,0.450385701,0.450385701,L-Const,4,0,0,0,0,0,1,0,0,0,45
73.47667,14.97775,-301.0081,326.2811,1.549058,-170.1557,379.4249,FALSE,1,1,2.713787272,Const,9.429485893,0,1,0,-0.000303994,1.162267996,-4.571377634,C,0,1,0,6,-170.3261006,-171.1781033,-170.7237018,-170.4026082,-171.6371491,-170.9787273,-170.4507818,-171.926191,-171.1393061,379.1779918,377.9434509,378.6018727,379.5953006,380.4473033,379.9929018,379.3708009,379.1003056,379.2445698,2.661206285,2.892906244,2.66881368,2.422721358,1.04607164,1.755306077,2.463807822,1.516208136,1.936577766,0,0,0,0,0,0,0,0,0,0,1.339904992,1.339904992,1.339904992,0.230891335,0.230891335,0.230891335,0.554506829,0.554506829,0.554506829,C-Const,6,0,0,0,1,0,0,0,0,0,46
74.58778,14.97775,-301.0081,326.2811,1.462924,-171.4816,379.1429,FALSE,1,1,1.749028064,Const,9.340396284,0,1,0,0.032528733,1.097641112,1.618085399,C,0,1,0,6,-171.6449606,-172.4617637,-172.0261354,-171.7332214,-172.9913282,-172.3203379,-171.7750366,-173.2422194,-172.4597219,378.8912786,377.6331718,378.3041621,379.3062606,380.1230637,379.6874354,379.0804902,378.7684414,378.9348674,1.842958786,2.789890083,2.209922825,1.45919874,0.42434646,0.812181306,1.613350985,1.73836491,1.496141685,0,0,0,0,0,0,0,0,0,0,1.808784514,1.808784514,1.808784514,0.237988187,0.237988187,0.237988187,1.023386351,1.023386351,1.023386351,C-Const,6,0,0,0,0,0,1,0,0,0,47
75.69889,14.97775,-301.0081,326.2811,1.621344,-172.9093,378.9175,FALSE,1,1,1.513855277,Const,9.246481702,0,1,0,0.032490877,1.216504638,-3.035484101,C,0,1,0,6,-173.0857559,-173.9680352,-173.4974862,-173.1519177,-174.3650059,-173.7180255,-173.2056297,-174.6872784,-173.8970658,378.6748823,377.4617941,378.1087745,379.0939559,379.9762352,379.5056862,378.8707166,378.6367993,378.7615552,1.785504916,3.220151833,2.445265728,1.401240101,1.738405568,1.377489697,1.629756224,2.679149696,2.05091434,0,0,0,0,0,0,0,0,0,0,2.663027105,2.663027105,2.663027105,1.092230779,1.092230779,1.092230779,1.877628942,1.877628942,1.877628942,C-Const,6,0,0,0,0,0,1,0,0,0,48
76.81001,14.97775,-301.0081,326.2811,1.535124,-174.2921,378.7532,FALSE,1,1,25.53073621,Const,9.156951005,0,1,0,-0.008411513,1.151813228,-2.195656865,C,0,1,0,5,-174.4777215,-175.405829,-174.9108384,-174.5277791,-175.7061748,-175.0776971,-174.5900045,-176.0795273,-175.2851151,378.5175209,377.3391252,377.9676029,378.9388215,379.866929,379.3719384,378.7178039,378.5408234,378.635213,25.31733739,24.27782895,24.82637231,25.32167004,24.30492507,24.84109695,25.23075178,23.73083553,24.53078959,0,0,0,0,0,0,0,0,0,0,0.775270346,0.775270346,0.775270346,0.795525981,0.795525981,0.795525981,0.010127818,0.010127818,0.010127818,C-Const,6,0,0,0,0,0,1,0,0,0,49
77.92111,14.97775,-301.0081,326.2811,1.602649,-175.8454,378.6633,FALSE,1,1,23.97896141,Const,9.058901882,0,1,0,-0.091048108,1.202477662,-3.463539445,C,0,1,0,5,-176.0449206,-177.0425238,-176.5104688,-176.0694346,-177.1896078,-176.5921821,-176.1448988,-177.6423928,-176.8437293,378.4392654,377.3190922,377.9165179,378.8628206,379.8604238,379.3283688,378.645966,378.5592958,378.6055199,23.7523061,22.64463111,23.22991116,23.78444335,22.84612705,23.33926107,23.67981894,22.18445397,22.98190677,0,0,0,0,0,0,0,0,0,0,0.710244439,0.710244439,0.710244439,0.860551888,0.860551888,0.860551888,0.075153724,0.075153724,0.075153724,C-Const,6,0,0,0,0,0,1,0,0,0,50
79.03223,14.97775,-301.0081,326.2811,1.332789,-177.274,378.4672,FALSE,1,1,22.53697429,Const,8.965894698,0,1,0,-0.588453719,1,4.503588319,C,0,1,0,5,-177.455313,-178.3618783,-177.8783768,-177.5130096,-178.7080575,-178.0706986,-177.571213,-179.0572779,-178.2647099,378.2281904,377.0331425,377.6705014,378.648513,379.5550783,379.0715768,378.4264024,378.2224143,378.331208,22.32663726,21.30718979,21.84399873,22.32506575,21.29730769,21.83864417,22.23697634,20.73698746,21.53698133,0,0,0,0,0,0,0,0,0,0,0.789067544,0.789067544,0.789067544,0.781728782,0.781728782,0.781728782,0.003669381,0.003669381,0.003669381,C-Const,6,0,0,0,0,0,1,0,0,0,51
80.14333,14.97775,-301.0081,326.2811,0.2949892,-178.4595,378.1387,FALSE,1,1,21.31909261,Dec,8.88444809,0,0,1,-0.508325021,0.221332259,7.671972456,C,0,1,0,5,-178.6072819,-179.3461916,-178.9521064,-178.7205757,-180.025954,-179.3297522,-178.748606,-180.1941359,-179.4231866,377.8776243,376.572246,377.2684478,378.2864819,379.0253916,378.6313064,378.0585892,377.6580354,377.8716641,21.14132422,20.29568895,20.73748562,21.07920973,19.90426963,20.52563326,21.02230683,19.53985054,20.33017362,0,0,0,0,0,0,0,0,0,0,0.930882,0.930882,0.930882,0.639914327,0.639914327,0.639914327,0.145483837,0.145483837,0.145483837,C-Dec,9,0,0,0,0,0,1,0,0,0,52
81.25445,14.97775,-301.0081,326.2811,0.203196,-179.7213,377.8897,FALSE,1,1,20.03631062,Const,8.800402272,0,1,0,0.313100336,0.152459241,-4.32480572,C,0,1,0,5,-179.888349,-180.7235938,-180.2781299,-179.970488,-181.2164278,-180.5519266,-180.015624,-181.4872437,-180.7023799,377.640512,376.3945722,377.0590734,378.056749,378.8919938,378.4465299,377.831619,377.5412137,377.6960965,19.84185662,18.91102665,19.39859565,19.80994667,18.70922787,19.28957983,19.73715521,18.24179428,19.03922928,0,0,0,0,0,0,0,0,0,0,0.859889669,0.859889669,0.859889669,0.710906658,0.710906658,0.710906658,0.074491506,0.074491506,0.074491506,C-Const,6,0,0,0,0,0,0,0,0,1,53
82.36555,14.97775,-301.0081,326.2811,0.9907512,-181.0821,377.7379,FALSE,1,1,18.66713286,Acc,8.712872432,1,0,0,0.363560678,0.74336688,-4.798009807,C,0,1,0,5,-181.2694065,-182.2059388,-181.7064549,-181.3164422,-182.4881534,-181.8632408,-181.3802507,-182.871004,-182.0759355,377.5035578,376.3318466,376.9567592,377.9252065,378.8617388,378.3622549,377.7046407,377.5383441,377.6270356,18.45410034,17.42738275,17.96668443,18.4583605,17.45443175,17.98126598,18.36714789,16.86723104,17.66718493,0,0,0,0,0,0,0,0,0,0,0.775470151,0.775470151,0.775470151,0.795326175,0.795326175,0.795326175,0.009928012,0.009928012,0.009928012,C-Acc,3,0,0,0,0,0,1,0,0,0,54
83.47667,14.97775,-301.0081,326.2811,1.011094,-182.3869,377.4351,FALSE,1,1,17.33591089,Const,8.624857637,0,1,0,0.018308374,0.758630211,6.700006067,C,0,1,0,5,-182.5455864,-183.3390183,-182.9158546,-182.641495,-183.9144702,-183.2355501,-182.6791341,-184.1403046,-183.3610136,377.180505,375.9075298,376.5864499,377.5937864,378.3872183,377.9640546,377.3672823,377.028194,377.2090411,17.15119467,16.27918425,16.73318202,17.1018049,15.96437762,16.56382266,17.0379364,15.54923244,16.34295082,0,0,0,0,0,0,0,0,0,0,0.900659795,0.900659795,0.900659795,0.670136532,0.670136532,0.670136532,0.115261631,0.115261631,0.115261631,C-Const,6,0,0,1,0,0,0,0,0,0,55
84.88667,15.82472,-324.4774,291.6063,0.3188432,-183.9732,377.035,FALSE,1,2,15.71619008,Const,10.39114099,0,1,0,0.044696025,0.234374596,0,C,0,1,0,5,-184.2568725,-185.675235,-184.918775,-183.8755787,-183.3874725,-183.6477958,-184.1047581,-184.7625486,-184.411727,377.1326213,377.6207275,377.3604042,377.3186725,378.737035,377.980575,377.3046154,378.6526924,377.933718,15.44404095,14.10025717,14.81321026,15.84367091,16.54806012,16.15888469,15.61441034,15.18439024,15.3970526,0,0,0,0,0,0,0,0,0,0,0.430268901,0.430268901,0.430268901,2.001065228,2.001065228,2.001065228,1.215667064,1.215667064,1.215667064,C-Const,6,0,0,0,0,0,0,0,0,0,56
85.99778,14.78957,-314.9305,304.2505,0.3685054,-185.2237,377.2744,FALSE,1,2,14.49992341,Const,10.06453007,0,1,0,0.521077481,0.270880182,53.1522977,L,1,0,0,5,-185.4719353,-186.7131116,-186.0511509,-185.3921614,-186.2344686,-185.7852381,-185.5183491,-186.9915943,-186.2058635,377.1059386,376.2636314,376.7128619,377.5226353,378.7638116,378.1018509,377.3308086,377.6128517,377.4624287,14.23344438,12.92310869,13.61708407,14.36588069,13.77433385,14.07303363,14.21479239,12.7993375,13.55198353,0,0,0,0,0,0,0,0,0,0,0.472471855,0.472471855,0.472471855,1.098324471,1.098324471,1.098324471,0.312926308,0.312926308,0.312926308,L-Const,4,0,0,0,0,0,1,0,0,0,57
87.10889,14.791,-304.182,317.2512,1.476792,-186.3953,377.5928,FALSE,1,2,13.38452222,Acc,8.947572889,1,0,0,0.531980452,1.085557189,-4.366028312,C,0,1,0,5,-186.6556395,-187.9573371,-187.2630984,-186.5443749,-187.2897497,-186.8922165,-186.6847997,-188.1322984,-187.3602991,377.4437251,376.6983503,377.0958835,377.8531395,379.1548371,378.4605984,377.6714759,378.0648556,377.8550531,13.10437954,11.71842154,12.45431098,13.28128459,12.85799156,13.06403662,13.11161103,11.76685545,12.47965534,0,0,0,0,0,0,0,0,0,0,0.361850225,0.361850225,0.361850225,1.208946101,1.208946101,1.208946101,0.423547938,0.423547938,0.423547938,C-Acc,3,0,0,0,1,0,0,0,0,0,58
88.22,14.14069,-293.4059,329.2275,1.550683,-187.9249,377.2249,FALSE,1,2,11.81669824,Const,8.195345583,0,1,0,0.111744552,1.139872832,28.72771736,L,1,0,0,5,-188.0815428,-188.8647565,-188.4470425,-188.1807575,-189.4600448,-188.7777582,-188.2165817,-189.6749903,-188.8971724,376.9690425,375.6897552,376.3720418,377.3815428,378.1647565,377.7470425,377.1547446,376.8039676,376.9910487,11.62635144,10.74990701,11.20089248,11.58830617,10.50053589,11.06869308,11.51789465,10.02494875,10.82094377,0,0,0,0,0,0,0,0,0,0,0.873597174,0.873597174,0.873597174,0.697199153,0.697199153,0.697199153,0.08819901,0.08819901,0.08819901,L-Const,4,0,0,1,0,0,0,0,0,0,59
89.33112,10.41748,-284.3644,337.6716,1.725115,-189.0377,376.7697,FALSE,1,2,10.65283428,Const,9.890415354,0,1,0,0.023558272,1.268093943,8.723497136,C,0,1,0,5,-189.1537257,-189.7338545,-189.4244525,-189.3143551,-190.6976304,-189.9598836,-189.3153673,-190.7037036,-189.9632576,376.4930449,375.1097696,375.8475164,376.8857257,377.4658545,377.1564525,376.6561179,376.0882075,376.3910931,10.50750726,9.885942633,10.19471988,10.39326236,9.132635115,9.796578957,10.36379364,8.929441257,9.691956106,0,0,0,0,0,0,0,0,0,0,1.052731431,1.052731431,1.052731431,0.518064895,0.518064895,0.518064895,0.267333268,0.267333268,0.267333268,C-Const,6,0,0,0,1,0,0,0,0,0,60
90.44222,8.750494,-276.7506,343.7923,1.60304,-190.2313,376.5049,FALSE,1,2,9.436752107,Const,10.57049416,0,1,0,-0.048422954,1.178359306,-9.738944129,C,0,1,0,5,-190.3924525,-191.1982147,-190.7684748,-190.4843413,-191.7495477,-191.0747709,-190.5241792,-191.9885752,-191.207564,376.2518587,374.9866523,375.6614291,376.6660525,377.4718147,377.0420748,376.4399248,376.1150487,376.288316,9.2521409,8.429188324,8.845998721,9.204535396,8.11044879,8.678876394,9.138622937,7.65017147,8.44350361,0,0,0,0,0,0,0,0,0,0,0.895348676,0.895348676,0.895348676,0.675447651,0.675447651,0.675447651,0.109950512,0.109950512,0.109950512,C-Const,6,0,0,0,0,0,1,0,0,0,61
91.55334,8.339805,-269.2387,349.3711,1.617511,-191.3901,376.3842,FALSE,1,2,8.27169697,Const,9.880583115,0,1,0,-0.037591699,1.188996619,-6.562020195,C,0,1,0,5,-191.5791139,-192.5241835,-192.0201464,-191.6230673,-192.7879035,-192.1666575,-191.6884857,-193.1804145,-192.3847191,376.1512327,374.9863965,375.6076425,376.5732139,377.5182835,377.0142464,376.3531203,376.1977218,376.280601,8.061222282,7.105981583,7.593555414,8.063495828,7.121441988,7.601597515,7.971701217,6.471728353,7.271712487,0,0,0,0,0,0,0,0,0,0,0.78017496,0.78017496,0.78017496,0.790621367,0.790621367,0.790621367,0.005223204,0.005223204,0.005223204,C-Const,6,0,0,0,0,0,1,0,0,0,62
92.66444,8.321436,-261.5898,354.6836,1.519505,-192.7395,376.1464,FALSE,1,2,6.905016629,Const,8.666541092,0,1,0,0.235868652,1.116954572,4.047959329,C,0,1,0,5,-192.9115969,-193.7720813,-193.3131563,-192.9852288,-194.213873,-193.5585961,-193.0349474,-194.5121844,-193.7243247,375.9006712,374.672027,375.3273039,376.3184969,377.1789813,376.7200563,376.0943343,375.8340061,375.9728478,6.714026206,5.896830854,6.301499726,6.679764849,5.658557891,6.178937392,6.605979953,5.112489957,5.908607529,0,0,0,0,0,0,0,0,0,0,0.863799254,0.863799254,0.863799254,0.706997073,0.706997073,0.706997073,0.078401091,0.078401091,0.078401091,C-Const,6,0,0,0,0,0,1,0,0,0,63
93.77556,8.322299,-253.8104,359.7049,2.141676,-194.247,375.8357,FALSE,1,2,5.377194292,Const,7.414898845,0,1,0,-0.617032278,1.574298736,1.65133683,C,0,1,0,5,-194.4119442,-195.2366651,-194.7968139,-194.4975861,-195.7505169,-195.0822872,-194.5408243,-196.0099459,-195.2264144,375.5851139,374.3321831,375.0004128,376.0006442,376.8253651,376.3855139,375.775142,375.4723519,375.6338399,5.201732842,4.525158019,4.840134861,5.141108928,4.088387681,4.619180338,5.080207875,3.60277394,4.38883399,0,0,0,0,0,0,0,0,0,0,0.923258203,0.923258203,0.923258203,0.647538124,0.647538124,0.647538124,0.13786004,0.13786004,0.13786004,C-Const,6,0,0,0,0,0,1,0,0,0,64
94.88667,8.320203,-245.8577,364.377,0.1483409,-195.1632,375.7952,FALSE,1,2,4.460348536,Dec,6.245578892,0,0,1,-0.823894574,0.10904212,-9.114678236,C,0,1,0,5,-195.3657571,-196.3785425,-195.8383903,-195.3844931,-196.4909585,-195.9008436,-195.4629073,-196.961444,-196.1622244,375.5739069,374.4674415,375.0575564,375.9977571,377.0105425,376.4703903,375.7819516,375.7157098,375.7510388,4.247888132,3.390247219,3.798358085,4.259268936,3.474864879,3.84060565,4.16045379,2.661335969,3.460770337,0,0,0,0,0,0,0,0,0,0,0.759814088,0.759814088,0.759814088,0.810982239,0.810982239,0.810982239,0.025584075,0.025584075,0.025584075,C-Dec,9,0,0,0,0,0,1,0,0,0,65
95.99778,7.63567,-238.1117,368.3674,0.310801,-195.1632,375.7952,FALSE,1,2,4.460348536,Acc,5.708218691,1,0,0,0.097895438,0.228462952,0,C,0,1,0,5,-195.1632,-195.1632,-195.1632,-195.1632,-195.1632,-195.1632,-195.1632,-195.1632,-195.1632,375.7952,375.7952,375.7952,375.7952,375.7952,375.7952,375.7952,375.7952,375.7952,4.460348536,4.460348536,4.460348536,4.460348536,4.460348536,4.460348536,4.460348536,4.460348536,4.460348536,0,0,0,0,0,0,0,0,0,0,0,0,0,0,0,0,0,0,0,C-Acc,3,0,0,0,0,0,0,0,0,1,66
97.10889,6.593658,-231.1715,371.4597,0.3658861,-196.2648,375.796,FALSE,1,2,3.362378816,Const,5.334672834,0,1,0,0.563739414,0.268954793,0,C,0,1,0,5,-196.477086,-197.5385162,-196.9724201,-196.4767779,-197.5366675,-196.9713931,-196.5647999,-198.0647995,-197.2647997,375.5840221,374.5241325,375.0894069,376.008286,377.0697162,376.5036201,375.7962179,375.7973072,375.7967262,3.1371993,2.285642182,2.669647628,3.179397525,2.612174429,2.831168613,3.063819128,1.579230629,2.368595742,0,0,0,0,0,0,0,0,0,0,0.691836429,0.691836429,0.691836429,0.878959897,0.878959897,0.878959897,0.093561734,0.093561734,0.093561734,C-Const,6,0,0,1,0,0,0,0,0,0,67
98.22,5.472227,-225.2479,373.7923,1.563554,-197.0384,376.1967,FALSE,1,2,2.671054895,Acc,5.173722238,1,0,0,-0.12868284,1.149334019,-27.34109929,R,0,0,1,5,-197.3243298,-198.7539789,-197.9914994,-197.1291973,-197.5831836,-197.3410575,-197.3047863,-198.6367176,-197.9263542,376.1059027,375.6519164,375.8940425,376.4826298,377.9122789,377.1497994,376.3346795,377.0245773,376.6566318,2.371292492,0.874926996,1.672178328,2.676648698,3.164493368,2.81677965,2.459595732,1.823457083,2.053807187,0,0,0,0,0,0,0,0,0,0,0.03750084,0.03750084,0.03750084,1.533295487,1.533295487,1.533295487,0.747897323,0.747897323,0.747897323,R-Acc,2,0,0,0,0,0,1,0,0,0,68
99.33112,4.348376,-220.4216,375.5388,0.0798991,-197.7957,377.3065,FALSE,1,2,2.573305625,Dec,5.219154862,0,0,1,-0.694170359,0.058732064,-28.30863346,R,0,0,1,5,-198.0904923,-199.5644535,-198.7783408,-197.7400446,-197.4617674,-197.6101819,-197.9647953,-198.8102716,-198.3593509,377.3621554,377.6404326,377.4920181,377.6012923,379.0752535,378.2891408,377.5543039,378.7933236,378.1325131,2.417324445,2.156672354,2.17418658,2.826392504,4.185864108,3.446332979,2.645846996,3.404927132,2.929832214,0,0,0,0,0,0,0,0,0,0,0.973426165,0.973426165,0.973426165,2.544222492,2.544222492,2.544222492,1.758824329,1.758824329,1.758824329,R-Dec,8,0,1,0,0,0,0,0,0,0,69
100.4422,3.222594,-216.7527,376.8014,0.02091734,-197.7957,377.3065,FALSE,1,2,2.573305625,Dec,5.884615896,0,0,1,-0.00712822,0.015375875,0,C,0,1,0,5,-197.7957,-197.7957,-197.7957,-197.7957,-197.7957,-197.7957,-197.7957,-197.7957,-197.7957,377.3065,377.3065,377.3065,377.3065,377.3065,377.3065,377.3065,377.3065,377.3065,2.573305625,2.573305625,2.573305625,2.573305625,2.573305625,2.573305625,2.573305625,2.573305625,2.573305625,0,0,0,0,0,0,0,0,0,0,0,0,0,0,0,0,0,0,0,C-Dec,9,0,0,0,0,0,0,0,1,0,70
101.5533,2.065618,-214.2921,377.63,0.06406075,-197.7957,377.3065,FALSE,1,2,2.573305625,Const,7.987716832,0,1,0,0.886024957,0.047089643,0,C,0,1,0,5,-197.7957,-197.7957,-197.7957,-197.7957,-197.7957,-197.7957,-197.7957,-197.7957,-197.7957,377.3065,377.3065,377.3065,377.3065,377.3065,377.3065,377.3065,377.3065,377.3065,2.573305625,2.573305625,2.573305625,2.573305625,2.573305625,2.573305625,2.573305625,2.573305625,2.573305625,0,0,0,0,0,0,0,0,0,0,0,0,0,0,0,0,0,0,0,C-Const,6,0,0,0,0,0,0,0,0,1,71
102.6644,0.9448557,-213.0156,378.0559,1.989842,-197.8413,377.3848,FALSE,1,2,2.598029678,Acc,16.07561114,1,0,0,0.834533139,1.462688915,0,C,0,1,0,5,-198.1313677,-199.5817062,-198.8081923,-197.7647446,-197.3819676,-197.5861153,-197.992276,-198.747156,-198.3445533,377.4613554,377.8441324,377.6399847,377.6748677,379.1252062,378.3516923,377.6440417,378.9402501,378.2489389,2.470443974,2.360035914,2.300914804,2.865924982,4.269937351,3.511265326,2.70004779,3.562689626,3.041615428,0,0,0,0,0,0,0,0,0,0,1.078581278,1.078581278,1.078581278,2.649377605,2.649377605,2.649377605,1.863979441,1.863979441,1.863979441,C-Acc,3,0,0,0,0,0,1,0,0,0,72
103.7756,0.1364854,-212.7859,378.129,1.918464,-198.8293,379.3586,FALSE,1,2,12.7992367,Const,102.6531791,0,1,0,-0.283575065,1.410220523,-3.624882338,C,0,1,0,0,-199.1139472,-200.5371835,-199.7781242,-198.7345585,-198.2608512,-198.5134951,-198.9635837,-199.635002,-199.2769122,379.4533415,379.9270488,379.6744049,379.6432472,381.0664835,380.3074242,379.6268683,380.96821,380.2528278,12.6117656,11.74467921,12.19184285,12.568188,11.46096843,12.04090633,12.50080855,11.00994945,11.8047861,13.73594454,12.37998528,13.09925603,14.1326976,14.81910425,14.43769623,13.90323841,13.45389278,13.67491846,0.1364854,0.886604944,0.886604944,0.886604944,0.684191383,0.684191383,0.684191383,0.101206781,0.101206781,0.101206781,C-Const,6,0,0,1,0,0,0,0,0,0,73
104.8867,0.04328611,-212.7486,378.1368,1.359697,-199.5996,381.4501,FALSE,1,2,10.57053023,Const,313.2649381,0,1,0,-0.093150482,0.99948324,-6.371824695,C,0,1,0,0,-199.8719744,-201.2338467,-200.5075148,-199.4738536,-198.8451215,-199.1804453,-199.7032817,-200.22169,-199.9452056,381.5758464,382.2045785,381.8692547,381.7224744,383.0843467,382.3580148,381.731614,383.1391838,382.3884799,10.3579644,9.367177438,9.879633949,10.36320691,9.401903984,9.897942714,10.27055287,8.770689339,9.570611233,13.32796031,12.21214014,12.79747573,13.75048922,14.75753819,14.20962623,13.53155637,13.48878488,13.49087436,0.04328611,0.773286579,0.773286579,0.773286579,0.797509748,0.797509748,0.797509748,0.012111584,0.012111584,0.012111584,C-Const,6,0,0,0,0,0,1,0,0,0,74
105.9978,0.004391364,-212.7366,378.1367,1.711465,-200.1791,382.6724,FALSE,1,2,9.222497198,Const,3040.406358,0,1,0,0.024267843,1.258060129,5.147154201,C,0,1,0,0,-200.4616573,-201.874444,-201.1209578,-200.0782964,-199.5742787,-199.8430881,-200.3076193,-200.9502159,-200.6074977,382.7732036,383.2772213,383.0084119,382.9549573,384.367744,383.6142578,382.9434771,384.2988625,383.5759903,9.033018312,8.185367802,8.615354823,8.994386671,7.926012657,8.479558437,8.923727493,7.431366047,8.226946409,13.12140933,12.01712917,12.59590097,13.54430702,14.56271307,14.0087932,13.3260897,13.30004119,13.29289285,0.004391364,0.874510233,0.874510233,0.874510233,0.696286094,0.696286094,0.696286094,0.089112069,0.089112069,0.089112069,C-Const,6,0,0,0,0,0,1,0,0,0,75
107.1089,0.001535494,-212.7355,378.1344,1.413625,-200.6274,383.677,FALSE,1,2,8.125138115,Const,8672.387959,0,1,0,-0.104940599,1.039124522,-1.317232826,C,0,1,0,0,-200.9075654,-202.3083923,-201.5612846,-200.5201276,-199.9837659,-200.2698255,-200.7496538,-201.360923,-201.0349128,383.7842724,384.3206341,384.0345745,383.9571654,385.3579923,384.6108846,383.9509599,385.3207591,384.5901995,7.932774142,7.084072741,7.511412876,7.900116549,6.861610747,7.395794509,7.826015342,6.3316467,7.128348937,13.10805458,12.124111,12.63626325,13.53218085,14.65561356,14.04770067,13.32264526,13.45454418,13.36342353,0.001535494,0.86046625,0.86046625,0.86046625,0.710330077,0.710330077,0.710330077,0.075068086,0.075068086,0.075068086,C-Const,6,0,0,0,0,0,1,0,0,0,76
108.22,1.03E-06,-212.7355,378.1345,1.478266,-200.9674,384.754,FALSE,1,2,6.99673568,Const,13108808.11,0,1,0,-0.459596526,1.086640694,-6.528210848,C,0,1,0,0,-201.2335527,-202.5643164,-201.8545758,-200.8289705,-200.1368231,-200.5059684,-201.057714,-201.5092839,-201.2684466,384.8924295,385.5845769,385.2154316,385.0201527,386.3509164,385.6411758,385.0400828,386.470497,385.7076094,6.778267436,5.796370048,6.294678259,6.798002085,5.933417496,6.365221971,6.697055004,5.199204116,5.997924251,13.34032989,12.60779998,12.98206855,13.75418692,15.04114881,14.34962105,13.56678888,13.98273125,13.74209954,1.03E-06,0.740254619,0.740254619,0.740254619,0.830541708,0.830541708,0.830541708,0.045143544,0.045143544,0.045143544,C-Const,6,0,0,0,0,0,1,0,0,0,77
109.3311,1.03E-06,-212.7355,378.1345,0.3923096,-201.2891,385.6109,FALSE,1,2,6.081474206,Dec,13273539.49,0,0,1,-0.54904311,0.288378124,3.056816104,C,0,1,0,0,-201.562256,-202.9280358,-202.1996199,-201.1650604,-200.5448624,-200.8756347,-201.3945412,-201.9217471,-201.6405706,385.7349396,386.3551376,386.0243653,385.884056,387.2498358,386.5214199,385.8917597,387.296058,386.5470989,5.875258065,4.989018079,5.428206385,5.871109589,4.959629449,5.413223885,5.781488276,4.281588204,5.081527568,13.51325514,12.79707924,13.16262683,13.92589997,15.22172759,14.52572994,13.74017556,14.17291065,13.92369484,1.03E-06,0.794841457,0.794841457,0.794841457,0.77595487,0.77595487,0.77595487,0.009443293,0.009443293,0.009443293,C-Dec,9,0,0,0,0,0,1,0,0,0,78
110.4422,2.84E-05,-212.7355,378.1345,0.2581824,-201.4856,386.6301,FALSE,1,2,5.059314188,Const,496385.8036,0,1,0,0.012171767,0.189784181,-9.664661833,C,0,1,0,0,-201.7340552,-202.976331,-202.3137839,-201.3174631,-200.4767784,-200.9251436,-201.5423936,-201.8263614,-201.6749119,386.7982369,387.6389216,387.1905564,386.8785552,388.120831,387.4582839,386.9246751,388.3975506,387.612017,4.813564559,3.706632211,4.267216787,4.897820529,4.31839963,4.57565438,4.765156962,3.310139724,4.082098659,14.00328983,13.62260654,13.80667682,14.38158782,15.81148515,15.04717467,14.2321049,14.97796756,14.56571102,2.84E-05,0.593624373,0.593624373,0.593624373,0.977171954,0.977171954,0.977171954,0.19177379,0.19177379,0.19177379,C-Const,6,0,0,0,0,0,0,0,0,1,79
111.5533,0.009441927,-212.7286,378.1367,0.4193577,-201.7386,387.7671,TRUE,1,2,3.914582308,Acc,1547.616766,1,0,0,-0.116183242,0.308260585,1.63218324,C,0,1,0,0,-201.9917434,-203.2574606,-202.5824114,-201.5776081,-200.7726484,-201.2019602,-201.8037609,-202.1295657,-201.9558032,387.9280919,388.7330516,388.3037398,388.0202434,389.2859606,388.6109114,388.0599379,389.5241276,388.7432264,3.666233797,2.593809608,3.122233175,3.76020543,3.303800239,3.474850895,3.621826819,2.18769371,2.944407834,14.53105107,14.21214796,14.36362909,14.90063931,16.34780691,15.57474013,14.75881971,15.55676814,15.11792164,0.009441927,0.573721082,0.573721082,0.573721082,0.997075245,0.997075245,0.997075245,0.211677082,0.211677082,0.211677082,C-Acc,3,0,0,0,0,0,1,0,0,0,80
112.6644,3.362967,-210.2949,378.874,0,-201.8544,388.6047,FALSE,1,2,3.114716528,Dec,3.830345681,0,0,1,0.463915324,0,-4.67344608,C,0,1,0,0,-202.0935847,-203.2895083,-202.6516824,-201.6733181,-200.7679083,-201.2507935,-201.8954849,-202.1009092,-201.9913495,388.7857819,389.6911917,389.2083065,388.8438847,390.0398083,389.4019824,388.9018734,390.3877404,389.595278,2.842570987,1.635225868,2.235463024,3.006718973,2.90428281,2.86317868,2.837307731,1.579428918,2.213062602,12.86487442,12.88748031,12.85366353,13.18067815,14.67783518,13.87927503,13.08084171,14.13179765,13.56077994,3.362967,0.41360098,0.41360098,0.41360098,1.157195346,1.157195346,1.157195346,0.371797183,0.371797183,0.371797183,C-Dec,9,0,0,1,0,0,0,0,0,0,81
113.7756,7.939987,-202.9629,380.8654,1.450485,-201.8397,389.2639,FALSE,1,2,2.568138851,Acc,1.067164781,1,0,0,0.76632957,1.066219494,-9.148837778,C,0,1,0,0,-202.04705,-203.0838,-202.5308666,-201.6228914,-200.5388482,-201.1170046,-201.8330117,-201.7995704,-201.8174058,389.4807086,390.5647518,389.9865954,389.47125,390.508,389.9550666,389.5638254,391.0634526,390.2636515,2.270721712,0.81263569,1.580549569,2.548651518,2.949078087,2.638742471,2.338784009,1.59460906,1.882529,8.663851567,9.700105225,9.131421508,8.709550919,9.942623438,9.275201861,8.771502297,10.2641908,9.467802669,7.939987,0.123432571,0.123432571,0.123432571,1.447363756,1.447363756,1.447363756,0.661965593,0.661965593,0.661965593,C-Acc,3,0,0,0,0,0,0,0,0,1,82
114.8867,12.44656,-190.6365,383.5399,1.703122,-201.7467,390.2381,FALSE,1,2,1.955429989,Const,1.042307476,0,1,0,0.314379444,1.251927374,-4.17562859,C,0,1,0,0,-201.9377129,-202.8927774,-202.3834096,-201.5153689,-200.3587134,-200.9755964,-201.7181907,-201.5756444,-201.6516691,390.4694311,391.6260866,391.0092036,390.4291129,391.3841774,390.8748096,390.5367423,392.0299538,391.2335743,1.67032597,0.566922279,1.038258698,2.06180473,3.014581278,2.438882421,1.832388624,1.930636221,1.723420593,13.25653854,14.68341744,13.92050226,12.87676368,12.4921624,12.67666411,13.10571141,13.84723411,13.43601781,12.44656,0.291633972,0.291633972,0.291633972,1.862430299,1.862430299,1.862430299,1.077032136,1.077032136,1.077032136,C-Const,6,0,0,1,0,0,0,0,0,0,83
115.9978,16.99038,-173.135,385.7946,2.149099,-200.5126,391.5264,FALSE,1,2,24.98494592,Const,1.64629472,0,1,0,-0.1700063,1.579755219,-38.31594911,R,0,0,1,1,-200.5190448,-200.5512685,-200.5340825,-200.2126692,-198.7130154,-199.5128308,-200.305074,-199.2674443,-199.8208468,391.8263308,393.3259846,392.5261692,391.5328448,391.5650685,391.5478825,391.7430402,392.8262413,392.248534,24.89595818,24.50132222,24.70124613,24.69912943,23.27540239,24.03356882,24.7190262,23.4017932,24.10165904,0,0,0,0,0,0,0,0,0,0,1.263900294,1.263900294,1.263900294,0.306896033,0.306896033,0.306896033,0.47850213,0.47850213,0.47850213,R-Const,5,0,0,0,0,0,1,0,0,0,84
117.1089,14.74261,-155.1728,387.1753,1.325334,-200.0184,391.8977,FALSE,1,2,24.39816104,Const,3.058722791,0,1,0,-0.871697732,0.974223758,-9.312855291,C,0,1,0,1,-199.9762234,-199.7653406,-199.8778115,-199.7213796,-198.2362774,-199.0283319,-199.7785515,-198.579309,-199.218905,392.1947204,393.6798226,392.8877681,391.8555234,391.6446406,391.7571115,392.0779018,392.978911,392.4983728,24.26604319,23.6515074,23.96954099,24.12992372,22.80061406,23.50702272,24.11394335,22.6989487,23.45229771,0,0,0,0,0,0,0,0,0,0,1.109232924,1.109232924,1.109232924,0.461563403,0.461563403,0.461563403,0.32383476,0.32383476,0.32383476,C-Const,6,0,0,0,0,1,0,0,0,0,85
118.22,15.32325,-138.594,387.9413,0.2120123,-199.1049,392.5768,FALSE,1,2,23.31995963,Dec,3.960530168,0,0,1,0.153789488,0.15584556,-0.290818553,C,0,1,0,1,-199.0612164,-198.8427984,-198.959288,-198.8080975,-197.3240848,-198.1155582,-198.8641399,-197.6603397,-198.3023665,392.8736025,394.3576152,393.5661418,392.5331164,392.3146984,392.431188,392.7557821,393.6506926,393.173407,23.19067896,22.5929847,22.90147219,23.05037224,21.71440482,22.42433933,23.03675359,21.62751746,22.37764168,0,0,0,0,0,0,0,0,0,0,1.119454573,1.119454573,1.119454573,0.451341754,0.451341754,0.451341754,0.334056409,0.334056409,0.334056409,C-Dec,9,0,0,0,0,0,1,0,0,0,86
119.3311,15.14243,-121.8249,387.9309,1.667085,-197.8083,393.3785,FALSE,1,2,21.84559711,Acc,5.030793041,1,0,0,-0.095406489,1.225437371,-4.898385732,C,0,1,0,1,-197.7394323,-197.3950939,-197.578741,-197.5163116,-196.0563694,-196.8350052,-197.5531362,-196.2773172,-196.957754,393.6704884,395.1304306,394.3517948,393.3096323,392.9652939,393.148941,393.5362702,394.3251211,393.9044006,21.6981824,21.00990602,21.3666438,21.58571578,20.30291084,20.98348927,21.55627089,20.11433126,20.88234784,0,0,0,0,0,0,0,0,0,0,1.051129687,1.051129687,1.051129687,0.519666639,0.519666639,0.519666639,0.265731524,0.265731524,0.265731524,C-Acc,3,0,0,0,0,0,0,0,0,1,87
120.4422,14.83776,-105.3254,387.5281,0,-196.9158,393.9435,FALSE,1,2,20.83135723,Dec,6.187915609,0,0,1,-0.693620376,0,0.607094927,C,0,1,0,1,-196.85003,-196.5211798,-196.6965666,-196.6230983,-195.1595896,-195.9401276,-196.6623222,-195.3949331,-196.070874,394.2362017,395.6997104,394.9191724,393.87773,393.5488798,393.7242666,394.1039649,394.9062897,394.4783832,20.69046917,20.03860937,20.37512401,20.56789443,19.26661533,19.95715997,20.54407728,19.11354089,19.87521909,0,0,0,0,0,0,0,0,0,0,1.075560157,1.075560157,1.075560157,0.495236169,0.495236169,0.495236169,0.290161994,0.290161994,0.290161994,C-Dec,9,0,0,1,0,0,0,0,0,0,88
121.5533,15.21272,-88.6705,386.528,0.1257218,-196.9158,393.9435,FALSE,1,2,20.83135723,Const,7.132124132,0,1,0,0.194236792,0.092415319,0,C,0,1,0,1,-196.9158,-196.9158,-196.9158,-196.9158,-196.9158,-196.9158,-196.9158,-196.9158,-196.9158,393.9435,393.9435,393.9435,393.9435,393.9435,393.9435,393.9435,393.9435,393.9435,20.83135723,20.83135723,20.83135723,20.83135723,20.83135723,20.83135723,20.83135723,20.83135723,20.83135723,0,0,0,0,0,0,0,0,0,0,0,0,0,0,0,0,0,0,0,C-Const,6,0,0,0,0,0,0,0,0,1,89
122.6644,15.18672,-71.63805,384.9099,0.431633,-196.9158,393.9435,FALSE,1,2,20.83135723,Acc,8.270582965,1,0,0,-0.056542962,0.317283887,0,C,0,1,0,1,-196.9158,-196.9158,-196.9158,-196.9158,-196.9158,-196.9158,-196.9158,-196.9158,-196.9158,393.9435,393.9435,393.9435,393.9435,393.9435,393.9435,393.9435,393.9435,393.9435,20.83135723,20.83135723,20.83135723,20.83135723,20.83135723,20.83135723,20.83135723,20.83135723,20.83135723,0,0,0,0,0,0,0,0,0,0,0,0,0,0,0,0,0,0,0,C-Acc,3,0,0,0,0,0,1,0,0,0,90
123.7756,15.08761,-54.99202,383.0905,0,-196.2278,394.3511,FALSE,1,2,20.05974776,Dec,9.390749599,0,0,1,-0.073553537,0,0,C,0,1,0,1,-196.1534176,-195.7815056,-195.9798587,-195.9371675,-194.4840049,-195.259025,-195.9696955,-194.6791729,-195.3674516,394.6417325,396.0948951,395.319875,394.2767176,393.9048056,394.1031587,394.5040119,395.2685715,394.8608064,19.91383335,19.23790924,19.58701293,19.79913485,18.51396887,19.19551203,19.77085236,18.33172708,19.09809476,0,0,0,0,0,0,0,0,0,0,1.056307344,1.056307344,1.056307344,0.514488983,0.514488983,0.514488983,0.270909181,0.270909181,0.270909181,C-Dec,9,0,0,1,0,0,0,0,0,0,91
124.8867,14.83684,-38.68028,380.9016,0.268112,-196.2278,394.3511,FALSE,1,2,20.05974776,Const,10.65729331,0,1,0,0.670892809,0.197083211,0,C,0,1,0,1,-196.2278,-196.2278,-196.2278,-196.2278,-196.2278,-196.2278,-196.2278,-196.2278,-196.2278,394.3511,394.3511,394.3511,394.3511,394.3511,394.3511,394.3511,394.3511,394.3511,20.05974776,20.05974776,20.05974776,20.05974776,20.05974776,20.05974776,20.05974776,20.05974776,20.05974776,0,0,0,0,0,0,0,0,0,0,0,0,0,0,0,0,0,0,0,C-Const,6,0,0,0,0,0,0,0,0,1,92
125.9978,14.91413,-22.38783,378.001,1.490858,-195.1574,394.8752,FALSE,1,2,18.89104737,Acc,11.63940879,1,0,0,0.561215462,1.095896795,0,C,0,1,0,1,-195.0601641,-194.5739848,-194.8332805,-194.8735952,-193.454571,-194.2113839,-194.8879635,-193.5407812,-194.2592785,395.1590048,396.578029,395.8212161,394.7779641,394.2917848,394.5510805,395.0071242,395.6667451,395.3149473,18.72781189,17.96461174,18.360353,18.64116973,17.41553614,18.06405633,18.59732948,17.13200598,17.9127975,0,0,0,0,0,0,0,0,0,0,0.988782028,0.988782028,0.988782028,0.582014299,0.582014299,0.582014299,0.203383865,0.203383865,0.203383865,C-Acc,3,0,0,0,0,0,1,0,0,0,93
127.1089,15.04246,-6.103409,374.3804,1.515245,-193.839,395.2924,FALSE,1,2,17.51043024,Const,12.55756715,0,1,0,-0.002781478,1.11382314,-8.52808663,C,0,1,0,1,-193.7007526,-193.0095158,-193.3781754,-193.5727526,-192.2415157,-192.9515087,-193.552979,-192.1228741,-192.8855967,395.5586474,396.8898843,396.1798913,395.1541526,394.4629158,394.8315754,395.3829097,395.835458,395.5940989,17.31259355,16.37008052,16.8627082,17.28733827,16.2091502,16.77611867,17.21095856,15.71390247,16.51226589,0,0,0,0,0,0,0,0,0,0,0.844243908,0.844243908,0.844243908,0.726552419,0.726552419,0.726552419,0.058845744,0.058845744,0.058845744,C-Const,6,0,0,1,0,0,0,0,0,0,94
128.22,15.07988,10.09688,370.2704,1.484677,-192.4858,395.637,FALSE,1,2,16.11404452,Const,13.53887801,0,1,0,0.073558186,1.091353278,-3.272647908,C,0,1,0,1,-192.3325787,-191.5664723,-191.9750624,-192.227879,-190.9382741,-191.6260634,-192.1950785,-190.741471,-191.5167284,395.894921,397.1845259,396.4967366,395.4837787,394.7176723,395.1262624,395.7110339,396.0812032,395.8837796,15.90373116,14.89831648,15.42454355,15.90292429,14.89314779,15.42177025,15.81404506,14.31404809,15.1140464,0,0,0,0,0,0,0,0,0,0,0.787275105,0.787275105,0.787275105,0.783521222,0.783521222,0.783521222,0.001876942,0.001876942,0.001876942,C-Const,6,0,0,0,0,0,1,0,0,0,95
129.3311,15.06229,26.20866,365.7996,1.678706,-191.3791,396.0585,FALSE,1,2,14.93844485,Const,14.58487826,0,1,0,-0.518164432,1.233979712,6.562912745,C,0,1,0,1,-191.2563616,-190.6426698,-190.9699721,-191.1053569,-189.7366413,-190.466623,-191.0987453,-189.6969715,-190.4445842,396.3322431,397.7009587,396.970977,395.9357616,395.3220698,395.6493721,396.1652765,396.6991589,396.4144216,14.75646872,13.90807468,14.34728486,14.70255445,13.56115673,14.16158104,14.64085743,13.15456441,13.94688879,0,0,0,0,0,0,0,0,0,0,0.911028175,0.911028175,0.911028175,0.659768152,0.659768152,0.659768152,0.125630012,0.125630012,0.125630012,C-Const,6,0,0,0,0,0,1,0,0,0,96
130.4422,15.05811,42.17937,360.8419,0.333212,-190.375,396.4588,FALSE,1,2,13.86906635,Dec,15.62387422,0,0,1,-0.097936729,0.244936783,0.885526074,C,0,1,0,1,-190.2565069,-189.6640415,-189.980023,-190.0993927,-188.7213562,-189.456309,-190.0963289,-188.7029736,-189.4460965,396.7344073,398.1124438,397.377491,396.3403069,395.7478415,396.063823,396.5698965,397.1253792,396.8291218,13.69364641,12.88567825,13.30166041,13.62840873,12.46379315,13.07641943,13.5726034,12.09290582,12.88149345,0,0,0,0,0,0,0,0,0,0,0.937443457,0.937443457,0.937443457,0.63335287,0.63335287,0.63335287,0.152045294,0.152045294,0.152045294,C-Dec,9,0,0,0,0,0,1,0,0,0,97
131.5533,15.01343,57.88264,355.2569,1.461071,-189.3584,396.798,FALSE,1,2,12.80257733,Acc,16.69882173,1,0,0,0.644078841,1.074001029,-3.283607701,C,0,1,0,1,-189.2243151,-188.5538906,-188.9114503,-189.0900323,-187.7481936,-188.4638409,-189.073823,-187.6509381,-188.4098101,397.0663677,398.4082064,397.6925591,396.6639151,395.9934906,396.3510503,396.8929523,397.3677138,397.1145077,12.61544731,11.7501972,12.19635472,12.57124903,11.46245536,12.04327087,12.50419441,11.01359775,11.80828627,0,0,0,0,0,0,0,0,0,0,0.888052171,0.888052171,0.888052171,0.682744156,0.682744156,0.682744156,0.102654007,0.102654007,0.102654007,C-Acc,3,0,0,0,0,0,0,0,0,1,98
132.6644,14.64805,73.12376,349.0001,1.764484,-188.1708,397.119,FALSE,1,2,11.57371287,Const,18.1381348,0,1,0,-0.083799047,1.297033226,-3.326632761,C,0,1,0,1,-188.0213682,-187.2742091,-187.6726939,-187.9106652,-186.609991,-187.3036839,-187.8811926,-186.4331559,-187.2054421,397.3791348,398.679809,397.9861161,396.9695682,396.2224091,396.6208939,397.1972788,397.5886731,397.3799295,11.37447269,10.45072367,10.92749562,11.35316506,10.31077071,10.85338289,11.27408755,9.77630564,10.57504441,0,0,0,0,0,0,0,0,0,0,0.834729929,0.834729929,0.834729929,0.736066398,0.736066398,0.736066398,0.049331765,0.049331765,0.049331765,C-Const,6,0,0,1,0,0,0,0,0,0,99
133.7756,14.50672,76.64085,347.3964,1.274773,-187.0722,397.4066,FALSE,1,2,10.43916987,Const,18.50267332,0,1,0,-0.156852465,0.937057483,-0.455104515,C,0,1,0,1,-186.9207066,-186.1632399,-186.5672221,-186.8132603,-185.5185619,-186.2090677,-186.78198,-185.3308801,-186.1048,397.6655397,398.9602381,398.2697323,397.2551066,396.4976399,396.9016221,397.482576,397.8624562,397.6598534,10.23939152,9.321453484,9.793152627,10.21952994,9.189745114,9.723751827,10.13949503,8.641459346,9.440334083,0,0,0,0,0,0,0,0,0,0,0.83128804,0.83128804,0.83128804,0.739508287,0.739508287,0.739508287,0.045889877,0.045889877,0.045889877,C-Const,6,0,0,0,0,0,1,0,0,0,100
134.8867,14.50672,76.64085,347.3964,1.415854,-186.0337,397.7225,FALSE,1,2,9.358073533,Const,18.43642934,0,1,0,0.038848888,1.040763011,2.249052184,C,0,1,0,1,-185.892485,-185.1864099,-185.5629833,-185.7690147,-184.4455881,-185.1514156,-185.7466851,-184.3116107,-185.0769837,397.9871853,399.3106119,398.6047844,397.581285,396.8752099,397.2517833,397.8098067,398.2463402,398.0135223,9.169939596,8.32820821,8.755248717,9.128773755,8.052289144,8.610658532,9.059471183,7.568117827,8.363121415,0,0,0,0,0,0,0,0,0,0,0.880405774,0.880405774,0.880405774,0.690390553,0.690390553,0.690390553,0.09500761,0.09500761,0.09500761,C-Const,6,0,0,0,0,0,1,0,0,0,101
135.9978,14.50672,76.64085,347.3964,1.361103,-184.7199,397.9381,FALSE,1,2,8.027799591,Const,18.35030605,0,1,0,0.057814778,1.00051676,-7.599761624,C,0,1,0,1,-184.5449202,-183.670021,-184.1366339,-184.4762157,-183.2577939,-183.9076188,-184.4238597,-182.9436583,-183.7330991,398.1817843,399.4002061,398.7503812,397.7631202,396.888221,397.3548339,397.9866814,398.2295886,398.1000381,7.809196946,6.809809856,7.3215801,7.82830228,6.940177818,7.389276057,7.728099474,6.230031898,7.0288987,0,0,0,0,0,0,0,0,0,0,0.741525045,0.741525045,0.741525045,0.829271281,0.829271281,0.829271281,0.043873118,0.043873118,0.043873118,C-Const,6,0,0,0,0,0,1,0,0,0,102
137.1089,14.50672,76.64085,347.3964,1.54433,-183.4354,398.1752,FALSE,1,2,6.722049397,Const,18.26650412,0,1,0,0.0599505,1.135202882,1.138841529,C,0,1,0,1,-183.265298,-182.4147881,-182.8683934,-183.188286,-181.9527162,-182.6116868,-183.1403838,-181.6653026,-182.4520126,398.422314,399.6578838,398.9989132,398.005098,397.1545881,397.6081934,398.2296557,398.5019342,398.356719,6.507186251,5.552575704,6.034155351,6.51973293,5.640191875,6.079132014,6.422178344,4.923058762,5.722531785,0,0,0,0,0,0,0,0,0,0,0.756739099,0.756739099,0.756739099,0.814057228,0.814057228,0.814057228,0.028659064,0.028659064,0.028659064,C-Const,6,0,0,0,0,0,1,0,0,0,103
138.22,14.50672,76.64085,347.3964,1.494325,-182.1394,398.4553,FALSE,1,2,5.396128602,Const,18.18255763,0,1,0,-0.69495545,1.09844531,1.737310185,C,0,1,0,1,-181.976868,-181.164208,-181.5976267,-181.8872426,-180.6264557,-181.2988754,-181.8461703,-180.3800219,-181.1619677,398.7074574,399.9682443,399.2958246,398.292768,397.480108,397.9135267,398.5186747,398.8355483,398.6665491,5.188792467,4.318609055,4.743706197,5.187878505,4.312015867,4.740372931,5.096129283,3.596134396,4.396131235,0,0,0,0,0,0,0,0,0,0,0.787469441,0.787469441,0.787469441,0.783326886,0.783326886,0.783326886,0.002071277,0.002071277,0.002071277,C-Const,6,0,0,0,0,0,1,0,0,0,104
139.3311,14.50672,76.64085,347.3964,0,-181.6563,398.537,FALSE,1,2,4.906672829,Dec,18.15097983,0,0,1,0.178727387,0,-2.59674193,C,0,1,0,1,-181.4825106,-180.6135636,-181.077002,-181.4117652,-180.1890915,-180.8411842,-181.3605002,-179.8815009,-180.6703005,398.7815348,400.0042085,399.3521158,398.3632106,397.4942636,397.957702,398.5870245,398.8371471,398.7037484,4.689038501,3.774294786,4.220693185,4.710101264,3.928502548,4.298157413,4.607034255,3.109886899,3.90809325,0,0,0,0,0,0,0,0,0,0,0.737830272,0.737830272,0.737830272,0.832966055,0.832966055,0.832966055,0.047567891,0.047567891,0.047567891,C-Dec,9,0,0,0,0,0,1,0,0,0,105
140.4422,14.50672,76.64085,347.3964,1.891493,-181.048,398.6089,FALSE,1,2,4.297457533,Acc,18.11081332,1,0,0,0.013887535,1.390394737,-2.857833265,C,0,1,0,1,-180.8622347,-179.9334085,-180.4287825,-180.8124341,-179.6346049,-180.2627805,-180.7500739,-179.2604435,-180.0549131,398.8444659,400.0222951,399.3941195,398.4231347,397.4943085,397.9896825,398.6441143,398.8201861,398.7262811,4.067386479,3.101788254,3.571150093,4.116880441,3.471530088,3.755443024,3.999453094,2.516554004,3.305513665,0,0,0,0,0,0,0,0,0,0,0.674083746,0.674083746,0.674083746,0.896712581,0.896712581,0.896712581,0.111314418,0.111314418,0.111314418,C-Acc,3,0,0,0,0,0,0,0,0,1,106
141.5533,14.50672,76.64085,347.3964,0.03086088,-180.8615,398.6309,FALSE,1,2,4.110884698,Dec,18.09849987,0,0,1,-0.851180362,0.022685151,-0.013324049,C,0,1,0,1,-180.67568,-179.7465798,-180.2420999,-180.6259774,-179.4483641,-180.0764245,-180.5635657,-179.0738944,-179.8683858,398.8664226,400.0440359,399.4159755,398.44508,397.5159798,398.0114999,398.6660451,398.8417704,398.7480502,3.879969609,2.920294508,3.383589351,3.931930658,3.311133822,3.577949878,3.813082656,2.33253747,3.119849484,0,0,0,0,0,0,0,0,0,0,0.668766057,0.668766057,0.668766057,0.90203027,0.90203027,0.90203027,0.116632107,0.116632107,0.116632107,C-Dec,9,0,0,1,0,0,0,0,0,0,107
142.6644,14.50672,76.64085,347.3964,0,-180.8615,398.6309,FALSE,1,2,4.110884698,Dec,18.09849987,0,0,1,-0.01388816,0,0,C,0,1,0,1,-180.8615,-180.8615,-180.8615,-180.8615,-180.8615,-180.8615,-180.8615,-180.8615,-180.8615,398.6309,398.6309,398.6309,398.6309,398.6309,398.6309,398.6309,398.6309,398.6309,4.110884698,4.110884698,4.110884698,4.110884698,4.110884698,4.110884698,4.110884698,4.110884698,4.110884698,0,0,0,0,0,0,0,0,0,0,0,0,0,0,0,0,0,0,0,C-Dec,9,0,0,0,0,0,0,0,0,1,108
143.7756,14.50672,76.64085,347.3964,0,-180.8615,398.6309,FALSE,1,2,4.110884698,Const,18.09849987,0,1,0,0.063667521,0,0,C,0,1,0,1,-180.8615,-180.8615,-180.8615,-180.8615,-180.8615,-180.8615,-180.8615,-180.8615,-180.8615,398.6309,398.6309,398.6309,398.6309,398.6309,398.6309,398.6309,398.6309,398.6309,4.110884698,4.110884698,4.110884698,4.110884698,4.110884698,4.110884698,4.110884698,4.110884698,4.110884698,0,0,0,0,0,0,0,0,0,0,0,0,0,0,0,0,0,0,0,C-Const,6,0,0,0,0,0,0,0,0,1,109
144.8867,14.50672,76.64085,347.3964,0.1414756,-180.8615,398.6309,FALSE,1,2,4.110884698,Const,18.09849987,0,1,0,1.433524435,0.10399559,0,C,0,1,0,1,-180.8615,-180.8615,-180.8615,-180.8615,-180.8615,-180.8615,-180.8615,-180.8615,-180.8615,398.6309,398.6309,398.6309,398.6309,398.6309,398.6309,398.6309,398.6309,398.6309,4.110884698,4.110884698,4.110884698,4.110884698,4.110884698,4.110884698,4.110884698,4.110884698,4.110884698,0,0,0,0,0,0,0,0,0,0,0,0,0,0,0,0,0,0,0,C-Const,6,0,0,0,0,0,1,0,0,0,110
145.9978,14.50672,76.64085,347.3964,3.185578,-178.9015,398.8104,FALSE,1,2,2.180739932,Acc,17.96844341,1,0,0,0.023567906,2.341648045,0,C,0,1,0,1,-178.7095984,-177.7500906,-178.2618281,-178.6709056,-177.5179334,-178.1328519,-178.6027502,-177.1090013,-177.9056674,399.0409944,400.1939666,399.5790481,398.6184984,397.6589906,398.1707281,398.83776,398.97456,398.9016,1.925153187,1.076640845,1.399137994,2.049970739,2.033751934,1.900387131,1.893435172,0.657607226,1.246539339,0,0,0,0,0,0,0,0,0,0,0.513939813,0.513939813,0.513939813,1.056856513,1.056856513,1.056856513,0.27145835,0.27145835,0.27145835,C-Acc,3,0,0,0,0,0,1,0,0,0,111
147.1089,14.50672,76.64085,347.3964,0.1938482,-176.8356,399.1067,FALSE,1,2,0.478368237,Dec,17.83292484,0,0,1,-1.327879354,0.142493531,2.929293979,C,0,1,0,1,-176.6557334,-175.7564003,-176.2360446,-176.5955,-175.3950001,-176.0352667,-176.5386388,-175.0538326,-175.8457292,399.3468,400.5472999,399.9070333,398.9268334,398.0275003,398.5071446,399.1492914,399.3622485,399.2486714,0.315026095,1.46672008,0.704878527,0.709688792,2.139571976,1.358274472,0.542446445,1.822445616,1.070923008,0,0,0,0,0,0,0,0,0,0,0.699626727,0.699626727,0.699626727,2.270423054,2.270423054,2.270423054,1.485024891,1.485024891,1.485024891,C-Dec,9,0,0,1,0,0,0,0,0,0,112
148.22,14.50672,76.64085,347.3964,0.2347645,-174.7999,399.282,FALSE,1,2,23.03100304,Const,17.69788915,0,1,0,0.074137836,0.1725702,-3.240175342,C,0,1,0,2,-174.6067501,-173.6410005,-174.156067,-174.5703502,-173.4226012,-174.034734,-174.5010062,-173.006537,-173.8035872,399.5115498,400.6592988,400.047166,399.0888501,398.1231005,398.638167,399.3077386,399.4364317,399.3677954,22.82110733,21.80325967,22.3393501,22.81861389,21.78759586,22.33085825,22.7310082,21.23103615,22.03102077,0,0,0,0,0,0,0,0,0,0,0.791221407,0.791221407,0.791221407,0.77957492,0.77957492,0.77957492,0.005823244,0.005823244,0.005823244,C-Const,6,0,0,0,0,0,0,0,0,1,113
149.3311,14.50672,76.64085,347.3964,0.3585973,-174.2209,399.3647,FALSE,1,2,22.44727216,Acc,17.65995756,1,0,0,0.738571461,0.263596957,3.206953785,C,0,1,0,2,-174.0408942,-173.1408652,-173.6208807,-173.9809044,-172.7809261,-173.4209145,-173.9239141,-172.4389848,-173.2309471,399.6046956,400.8046739,400.1646855,399.1846942,398.2846652,398.7646807,399.4071192,399.6192154,399.5060974,22.25014658,21.3005634,21.79931221,22.22300976,21.1299039,21.70684557,22.14788313,20.65120397,21.44937512,0,0,0,0,0,0,0,0,0,0,0.848802393,0.848802393,0.848802393,0.721993934,0.721993934,0.721993934,0.06340423,0.06340423,0.06340423,C-Acc,3,0,0,0,0,0,1,0,0,0,114
150.4422,14.50672,76.64085,347.3964,1.876018,-173.0395,399.5809,FALSE,1,2,21.25291542,Acc,17.58326331,1,0,0,1.365692287,1.379019406,2.241840543,C,0,1,0,2,-172.86902,-172.01662,-172.4712333,-172.7926467,-171.55838,-172.2166555,-172.7444008,-171.2689046,-172.0558359,399.8277533,401.06202,400.4037445,399.41042,398.55802,399.0126333,399.6349041,399.9049247,399.7609137,21.06625658,20.17401616,20.64111403,21.01993458,19.88199762,20.48309548,20.95469864,19.46443685,20.25906427,0,0,0,0,0,0,0,0,0,0,0.89371393,0.89371393,0.89371393,0.677082397,0.677082397,0.677082397,0.108315766,0.108315766,0.108315766,C-Acc,3,0,0,1,0,0,0,0,0,0,115
151.6522,11.42059,86.09492,350.2446,1.474038,-171.6877,399.6835,FALSE,1,3,19.89723422,Const,22.98310643,0,1,0,0.066570966,1.11044625,0,C,0,1,0,2,-171.9663358,-173.3595151,-172.6164862,-171.5765152,-171.0205911,-171.3170839,-171.8061058,-172.3981346,-172.0823859,399.7946848,400.3506089,400.0541161,399.9621358,401.3553151,400.6122862,399.9591448,401.337369,400.6023161,20.16751339,21.5307206,20.80133374,19.76800666,19.17928243,19.48111362,19.99737873,20.55653882,20.24641576,0,0,0,0,0,0,0,0,0,0,2.689444917,2.689444917,2.689444917,1.11864859,1.11864859,1.11864859,1.904046753,1.904046753,1.904046753,C-Const,6,0,0,0,0,0,0,0,0,0,116
152.7633,13.21323,71.89214,355.1928,1.548005,-170.4124,399.985,FALSE,1,3,18.6046167,Const,18.6487244,0,1,0,-0.046478148,1.166168272,-80.05497182,R,0,0,1,2,-170.2547645,-169.4665873,-169.8869485,-170.1571529,-168.8809176,-169.5615765,-170.120448,-168.6606878,-169.4392266,400.2402471,401.5164824,400.8358235,399.8273645,399.0391873,399.4595485,400.0540218,400.399131,400.2150728,18.43327617,17.62825031,18.04655429,18.36031666,17.16533003,17.7969093,18.30905695,16.83361472,17.62000118,0,0,0,0,0,0,0,0,0,0,0.956274783,0.956274783,0.956274783,0.614521544,0.614521544,0.614521544,0.17087662,0.17087662,0.17087662,R-Const,5,0,0,0,0,0,1,0,0,0,117
153.8745,14.09221,57.27928,360.1719,1.370727,-168.9488,400.2441,FALSE,1,3,17.12873052,Const,16.30331237,0,1,0,-0.043334275,1.032618329,-3.262336709,C,0,1,0,2,-168.7768945,-167.9173668,-168.3757815,-168.7029373,-167.4736236,-168.1292575,-168.6533932,-167.1763593,-167.9641107,400.4899627,401.7192764,401.0636425,400.0721945,399.2126668,399.6710815,400.2963956,400.5578738,400.4184188,16.9460711,16.08567403,16.53319281,16.89303189,15.74738433,16.35126296,16.83106747,15.34411765,16.13685695,0,0,0,0,0,0,0,0,0,0,0.909202104,0.909202104,0.909202104,0.661594223,0.661594223,0.661594223,0.123803941,0.123803941,0.123803941,C-Const,6,0,0,0,0,1,0,0,0,0,118
154.9856,13.95024,42.45715,365.0013,1.45168,-167.5119,400.4129,FALSE,1,3,15.68534088,Const,15.26383941,0,1,0,0.076878319,1.093603158,-3.33889895,C,0,1,0,2,-167.3259668,-166.3963007,-166.8921226,-167.2764667,-166.0993002,-166.7271223,-167.2139489,-165.7241933,-166.5187296,400.6483333,401.8254998,401.1976777,400.2269668,399.2973007,399.7931226,400.4479018,400.6229111,400.5295728,15.49058083,14.57048298,15.04960149,15.45983058,14.37318948,14.94383021,15.38612383,13.89054521,14.68807493,0,0,0,0,0,0,0,0,0,0,0.8569673,0.8569673,0.8569673,0.713829027,0.713829027,0.713829027,0.071569137,0.071569137,0.071569137,C-Const,6,0,0,0,0,0,1,0,0,0,119
156.0967,13.72878,27.85789,369.4547,1.541566,-166.0462,400.4601,FALSE,1,3,14.21902155,Const,14.3033348,0,1,0,0.001419314,1.16131754,-4.855658706,C,0,1,0,2,-165.8410056,-164.8150338,-165.3622188,-165.8273501,-164.7331007,-165.3167004,-165.7463554,-164.2471326,-165.0467181,400.6789499,401.7731993,401.1895996,400.2549056,399.2289338,399.7761188,400.4697559,400.5180354,400.4922864,14.00538815,12.9885532,13.51967647,14.01164821,13.02900009,13.54128056,13.91905393,12.41923931,13.21913521,0,0,0,0,0,0,0,0,0,0,0.770861002,0.770861002,0.770861002,0.799935325,0.799935325,0.799935325,0.014537161,0.014537161,0.014537161,C-Const,6,0,0,0,0,0,1,0,0,0,120
157.2078,13.84408,13.08699,373.5791,1.454834,-164.6458,400.5034,FALSE,1,3,12.81814676,Const,12.98465265,0,1,0,-0.005808658,1.095979181,-0.07345482,C,0,1,0,2,-164.4403252,-163.4129514,-163.9608841,-164.4272134,-163.3342802,-163.9171779,-164.3459433,-162.8466598,-163.6462777,400.7219866,401.8149198,401.2320221,400.2979252,399.2705514,399.8184841,400.5126715,400.5590289,400.534305,12.60404766,11.59084434,12.11866287,12.61161654,11.6401374,12.1448825,12.51819406,11.01846917,11.81831375,0,0,0,0,0,0,0,0,0,0,0.767849951,0.767849951,0.767849951,0.802946376,0.802946376,0.802946376,0.017548213,0.017548213,0.017548213,C-Const,6,0,0,0,0,0,1,0,0,0,121
158.3189,13.84476,-1.846512,377.2501,1.528658,-163.2913,400.6132,FALSE,1,3,11.46000284,Const,11.78254422,0,1,0,-0.053779588,1.151593476,2.863435007,C,0,1,0,2,-163.0970014,-162.1255084,-162.643638,-163.0627217,-161.91983,-162.5293722,-162.9922809,-161.4971851,-162.2945695,400.8417783,401.98467,401.3751278,400.4189014,399.4474084,399.965538,400.6374394,400.7586366,400.6939981,11.25784697,10.31873949,10.80385005,11.24217388,10.21569944,10.74931128,11.16020548,9.661407385,10.46072349,0,0,0,0,0,0,0,0,0,0,0.821671031,0.821671031,0.821671031,0.749125296,0.749125296,0.749125296,0.036272868,0.036272868,0.036272868,C-Const,6,0,0,0,0,0,1,0,0,0,122
159.43,13.87292,-16.89342,380.5064,1.335325,-161.8508,400.7705,FALSE,1,3,10.0143517,Const,10.55054896,0,1,0,-0.00398434,1.00594872,1.597462515,C,0,1,0,2,-161.6629491,-160.7236944,-161.2246302,-161.616894,-160.4473638,-161.0711132,-161.5525728,-160.0614368,-160.8567093,401.004406,402.1739362,401.5501868,400.5826491,399.6433944,400.1443302,400.8030659,400.9658952,400.8790529,9.820980929,8.942807064,9.391591695,9.789190649,8.73116952,9.280299122,9.715185079,8.220263163,9.017344969,0,0,0,0,0,0,0,0,0,0,0.858828752,0.858828752,0.858828752,0.711967575,0.711967575,0.711967575,0.073430589,0.073430589,0.073430589,C-Const,6,0,0,0,0,0,1,0,0,0,123
160.5411,13.88238,-32.02121,383.4595,1.519804,-160.4573,400.9688,FALSE,1,3,8.616003332,Const,9.337310343,0,1,0,-0.109613446,1.144923437,1.867112175,C,0,1,0,2,-160.2771698,-159.3765189,-159.856866,-160.2173977,-159.0178862,-159.6576257,-160.1602922,-158.6752531,-159.4672739,401.2087023,402.4082138,401.7684743,400.7886698,399.8880189,400.368366,401.0110653,401.2223916,401.1096842,8.434892101,7.64243819,8.040013551,8.381420472,7.28091256,7.851401094,8.318362923,6.833257151,7.624587931,0,0,0,0,0,0,0,0,0,0,0.908703866,0.908703866,0.908703866,0.662092461,0.662092461,0.662092461,0.123305703,0.123305703,0.123305703,C-Const,6,0,0,0,0,0,1,0,0,0,124
161.6522,13.79535,-47.16167,385.9543,1.091742,-158.9501,401.1128,FALSE,1,3,7.107409304,Const,8.177501413,0,1,0,-0.029255243,0.822448817,-2.641462423,C,0,1,0,2,-158.7591051,-157.8041306,-158.3134503,-158.7187541,-157.5620243,-158.1789469,-158.6514599,-157.1582595,-157.9546331,401.3441459,402.5008757,401.8839531,400.9218051,399.9668306,400.4761503,401.1413325,401.2839949,401.2079083,6.91989824,6.118301632,6.515188599,6.879035076,5.835272607,6.36931097,6.808781225,5.317957835,6.112504903,0,0,0,0,0,0,0,0,0,0,0.87903241,0.87903241,0.87903241,0.691763916,0.691763916,0.691763916,0.093634247,0.093634247,0.093634247,C-Const,6,0,0,0,0,0,1,0,0,0,125
162.7633,12.7766,-61.59009,387.7512,1.454793,-157.5102,401.0305,FALSE,1,3,5.668276166,Const,7.579085892,0,1,0,0.108792509,1.095948294,-8.728834647,C,0,1,0,2,-157.2863086,-156.1668516,-156.7638954,-157.3105186,-156.3121119,-156.8445955,-157.2106888,-155.713133,-156.5118295,401.2301814,402.2285881,401.6961045,400.8066086,399.6871516,400.2841954,401.0133809,400.9277855,400.9734364,5.444638235,4.462929485,4.954303592,5.477040128,4.69478838,5.071955665,5.369134678,3.87541865,4.671566087,0,0,0,0,0,0,0,0,0,0,0.71175454,0.71175454,0.71175454,0.859041787,0.859041787,0.859041787,0.073643623,0.073643623,0.073643623,C-Const,6,0,0,0,0,0,1,0,0,0,126
163.8745,11.64781,-74.83932,389.0278,1.333468,-156.2441,400.8978,FALSE,1,3,4.407224093,Const,7.062755785,0,1,0,0.123065944,1.004549774,-2.712046729,C,0,1,0,2,-156.0110112,-154.8455669,-155.4671372,-156.055236,-155.1109163,-155.6145535,-155.9457343,-154.4539059,-155.2495477,401.086664,402.0309837,401.5273465,400.6647112,399.4992669,400.1208372,400.8665283,400.7101697,400.7935609,4.168481064,3.136763498,3.646778229,4.237532522,3.649927423,3.903052193,4.111123555,2.64384195,3.422864267,0,0,0,0,0,0,0,0,0,0,0.629553847,0.629553847,0.629553847,0.94124248,0.94124248,0.94124248,0.155844316,0.155844316,0.155844316,C-Const,6,0,0,0,0,0,1,0,0,0,127
164.9856,10.54273,-86.86398,389.981,1.728236,-155.4743,400.1876,FALSE,1,3,3.750456699,Const,6.579447844,0,1,0,0.145714607,1.301942817,-36.71060162,R,0,0,1,2,-155.174543,-153.6757578,-154.4751099,-155.4622287,-155.4018722,-155.4340623,-155.2538041,-154.1513244,-154.7393136,400.1996713,400.2600278,400.2278377,399.887843,398.3890578,399.1884099,399.9841755,398.9670528,399.5095182,3.457761666,2.02659004,2.780867925,3.824893992,4.48879238,4.079896335,3.596597688,3.15966174,3.316306737,0,0,0,0,0,0,0,0,0,0,0.212179996,0.212179996,0.212179996,1.782976323,1.782976323,1.782976323,0.99757816,0.99757816,0.99757816,R-Const,5,0,0,0,0,0,1,0,0,0,128
166.0967,9.435437,-97.64827,390.6471,1.657275,-154.9519,399.3804,FALSE,1,3,3.564871926,Const,6.143361947,0,1,0,-0.082417874,1.248485323,-14.39611884,R,0,0,1,2,-154.6585541,-153.1918247,-153.9740804,-155.0147346,-155.3289077,-155.1613487,-154.7889039,-153.9739235,-154.4085797,399.3175654,399.0033923,399.1709513,399.0870541,397.6203247,398.4025804,399.1285423,397.8692541,398.5408745,3.345642592,2.513640167,2.891081725,3.76990377,4.942821802,4.291991046,3.558534267,3.890685999,3.641129787,0,0,0,0,0,0,0,0,0,0,0.722172048,0.722172048,0.722172048,2.292968375,2.292968375,2.292968375,1.507570212,1.507570212,1.507570212,R-Const,5,0,0,0,0,1,0,0,0,0,129
167.2078,8.295422,-107.151,391.0772,1.545087,-154.4141,398.2088,FALSE,1,3,3.887446232,Const,5.761987838,0,1,0,-0.107521375,1.163970037,-8.253390725,C,0,1,0,2,-154.1328123,-152.7263739,-153.4764744,-154.518394,-155.0398639,-154.7617466,-154.2889466,-153.6631793,-153.9969218,398.104506,397.5830361,397.8611534,397.9275123,396.5210739,397.2711744,397.9361526,396.5729155,397.2999753,3.789956478,3.649853363,3.649293702,4.168787574,5.604600608,4.83398493,4.01850795,4.901963464,4.389320143,0,0,0,0,0,0,0,0,0,0,1.203089142,1.203089142,1.203089142,2.773885469,2.773885469,2.773885469,1.988487306,1.988487306,1.988487306,C-Const,6,0,0,0,0,1,0,0,0,0,130
168.3189,7.198101,-115.4152,391.3396,1.418341,-153.8603,397.2772,FALSE,1,3,4.344063555,Const,5.404329575,0,1,0,-0.644167222,1.068487681,6.073277372,C,0,1,0,2,-153.5695567,-152.1158404,-152.8911558,-153.9342483,-154.3039898,-154.1067943,-153.7070028,-152.9405168,-153.3493094,397.2032517,396.8335102,397.0307057,396.9864567,395.5327404,396.3080558,397.0193241,395.7299447,396.4176137,4.284466589,4.299474719,4.225727642,4.636412538,6.109295088,5.321872948,4.50848666,5.504931508,4.941939646,0,0,0,0,0,0,0,0,0,0,1.336844254,1.336844254,1.336844254,2.907640581,2.907640581,2.907640581,2.122242418,2.122242418,2.122242418,C-Const,6,0,0,0,0,0,1,0,0,0,131
169.43,6.135296,-122.4871,391.4561,0.1136186,-153.7876,397.1742,FALSE,1,3,4.402945153,Dec,5.186141975,0,0,1,-0.638259833,0.085593009,4.485570644,C,0,1,0,2,-153.4919639,-152.0137835,-152.8021464,-153.8385833,-154.0935001,-153.9575445,-153.6146044,-152.7496263,-153.2109479,397.1232167,396.8682999,397.0042555,396.8785639,395.4003835,396.1887464,396.929103,395.7036183,396.3572102,4.327671356,4.259437299,4.230284133,4.691463022,6.150554576,5.369567664,4.554044644,5.496026349,4.959561274,0,0,0,0,0,0,0,0,0,0,1.284046845,1.284046845,1.284046845,2.854843172,2.854843172,2.854843172,2.069445009,2.069445009,2.069445009,C-Dec,9,0,0,0,0,0,1,0,0,0,132
170.5411,5.063707,-128.3701,391.435,0,-153.7876,397.1742,FALSE,1,3,4.402945153,Dec,5.145912444,0,0,1,-0.044219575,0,0,C,0,1,0,2,-153.7876,-153.7876,-153.7876,-153.7876,-153.7876,-153.7876,-153.7876,-153.7876,-153.7876,397.1742,397.1742,397.1742,397.1742,397.1742,397.1742,397.1742,397.1742,397.1742,4.402945153,4.402945153,4.402945153,4.402945153,4.402945153,4.402945153,4.402945153,4.402945153,4.402945153,0,0,0,0,0,0,0,0,0,0,0,0,0,0,0,0,0,0,0,C-Dec,9,0,0,0,0,0,0,0,0,1,133
171.6522,3.935241,-133.0077,391.3533,0.01535386,-153.7876,397.1742,FALSE,1,3,4.402945153,Const,5.483726411,0,1,0,0.462155972,0.011566619,0,C,0,1,0,2,-153.7876,-153.7876,-153.7876,-153.7876,-153.7876,-153.7876,-153.7876,-153.7876,-153.7876,397.1742,397.1742,397.1742,397.1742,397.1742,397.1742,397.1742,397.1742,397.1742,4.402945153,4.402945153,4.402945153,4.402945153,4.402945153,4.402945153,4.402945153,4.402945153,4.402945153,0,0,0,0,0,0,0,0,0,0,0,0,0,0,0,0,0,0,0,C-Const,6,0,0,0,0,0,0,0,0,1,134
172.7633,2.832287,-136.4362,391.2686,1.027003,-153.4649,396.5583,FALSE,1,3,4.845605106,Acc,6.295747647,1,0,0,0.631723843,0.773678582,0,C,0,1,0,2,-153.1785462,-151.7467774,-152.5103875,-153.5543512,-154.0016074,-153.7630708,-153.3256689,-152.6295133,-153.0007963,396.4688488,396.0215926,396.2601292,396.2719462,394.8401774,395.6037875,396.2925657,394.9638945,395.6725191,4.843316148,5.103608887,4.909782454,5.145394734,6.644627727,5.84498782,5.054191592,6.21044859,5.573428167,0,0,0,0,0,0,0,0,0,0,1.532202805,1.532202805,1.532202805,3.102999132,3.102999132,3.102999132,2.317600968,2.317600968,2.317600968,C-Acc,3,0,0,0,0,0,1,0,0,0,135
173.8745,1.738534,-138.6474,391.2077,1.419178,-152.9979,395.3654,FALSE,1,3,13.36743858,Const,8.59382672,0,1,0,0.221166201,1.069118224,-6.272736438,C,0,1,0,7,-152.7230342,-151.3487051,-152.0816806,-153.1181031,-153.7191185,-153.3985769,-152.8885369,-152.3417216,-152.6333564,395.2451969,394.6441815,394.9647231,395.0905342,393.7162051,394.4491806,395.0860441,393.6892646,394.4342137,13.202276,12.4522479,12.83591336,13.11962878,11.91662221,12.55026817,13.07313454,11.6059902,12.38748786,14.64325302,13.15798449,13.94973539,14.98257818,15.27904763,15.10312609,14.75979451,13.91734912,14.35330512,1.738534,0.978386155,0.978386155,0.978386155,0.592410172,0.592410172,0.592410172,0.192987992,0.192987992,0.192987992,C-Const,6,0,0,1,0,0,0,0,0,0,136
174.9856,0.4691777,-139.5296,391.1804,1.518527,-152.5549,394.1154,FALSE,1,3,12.06015199,Const,28.45804204,0,1,0,0.029425794,1.143961426,-1.865168973,C,0,1,0,7,-152.2840921,-150.9300528,-151.6522071,-152.6839856,-153.3294137,-152.9851854,-152.4546872,-151.9536234,-152.2208574,393.9863144,393.3408863,393.6851146,393.8445921,392.4905528,393.2127071,393.8326326,392.4187956,393.172842,11.89148444,11.13140073,11.51872618,11.81505162,10.6318549,11.25349703,11.76501208,10.29352829,11.07736776,13.05948793,11.60336263,12.37865898,13.42146716,13.86186707,13.60819791,13.194401,12.48559094,12.84670544,0.4691777,0.963400114,0.963400114,0.963400114,0.607396212,0.607396212,0.607396212,0.178001951,0.178001951,0.178001951,C-Const,6,0,0,0,0,0,1,0,0,0,137
176.0967,0.1066221,-139.5863,391.1732,1.484568,-152.1466,392.9532,TRUE,1,3,10.84931336,Const,118.9790913,0,1,0,-0.04395194,1.118378881,-0.157111474,C,0,1,0,7,-151.8761471,-150.5238827,-151.2450904,-152.2764277,-152.9255663,-152.5793591,-152.047163,-151.5499779,-151.8151433,392.8233723,392.1742337,392.5204409,392.6827471,391.3304827,392.0516904,392.6701589,391.2549532,392.0097296,10.68522729,9.960245546,10.3261419,10.60140318,9.407470148,10.03401368,10.55516263,9.090145554,9.870180301,12.40013753,10.98329565,11.736373,12.779596,13.34019353,13.02272357,12.55045785,11.96395726,12.25742184,0.1066221,0.980456649,0.980456649,0.980456649,0.590339677,0.590339677,0.590339677,0.195058486,0.195058486,0.195058486,C-Const,6,0,0,0,0,0,1,0,0,0,138
177.2078,0.06318446,-139.6939,391.1648,1.420857,-151.9522,391.8594,FALSE,1,3,9.73905048,Const,194.319355,0,1,0,0.130890559,1.070383075,-9.279325315,C,0,1,0,7,-151.7062207,-150.4763242,-151.132269,-152.1239387,-152.9826322,-152.5246623,-151.899704,-151.6372238,-151.7772132,391.6876613,390.8289678,391.2869377,391.6134207,390.3835242,391.039469,391.5640288,390.0871726,390.8748292,9.537417486,8.615594725,9.088079979,9.521430405,8.508836609,9.03202893,9.439260949,7.940551765,8.739808215,12.02369462,10.78765284,11.43902104,12.43813179,13.31167889,12.83137443,12.21233122,11.99184153,12.08679201,0.06318446,0.822277355,0.822277355,0.822277355,0.748518972,0.748518972,0.748518972,0.036879192,0.036879192,0.036879192,C-Const,6,0,0,0,0,0,1,0,0,0,139
178.3189,0.05085355,-139.659,391.1595,1.775433,-151.6772,390.8298,FALSE,1,3,8.682245706,Const,236.4185302,0,1,0,-0.00996625,1.337498027,4.876384704,C,0,1,0,7,-151.4175122,-150.119073,-150.8115739,-151.8274073,-152.5784438,-152.177891,-151.5997856,-151.2127134,-151.4191519,390.6795927,389.9285562,390.329109,390.5701122,389.271673,389.9641739,390.5399604,389.0907623,389.8636679,8.504416468,7.72940129,8.117496765,8.445087625,7.328715946,7.90833561,8.385153569,6.903466502,7.692816351,11.76830147,10.53225286,11.18344553,12.1826727,13.05664267,12.57582744,11.95684697,11.73746011,11.83132932,0.05085355,0.922323074,0.922323074,0.922323074,0.648473253,0.648473253,0.648473253,0.136924911,0.136924911,0.136924911,C-Const,6,0,0,0,0,0,1,0,0,0,140
179.43,0.0736595,-139.5739,391.1566,1.39871,-151.3796,389.6551,FALSE,1,3,7.481248442,Const,161.5650472,0,1,0,-0.709133966,1.053698937,-0.737993285,C,0,1,0,7,-151.1218684,-149.8332103,-150.5204946,-151.5331396,-152.3008378,-151.8913988,-151.3059251,-150.9375509,-151.1340171,389.5015604,388.7338622,389.1433012,389.3973684,388.1087103,388.7959946,389.3642873,387.9102239,388.6857244,7.305730596,6.564815763,6.929488862,7.243078724,6.134145839,6.706671959,7.18448636,5.705757997,6.493198874,11.6659646,10.54149453,11.13019793,12.08794062,13.08680925,12.54165991,11.86814218,11.81827054,11.82123237,0.0736595,0.929485216,0.929485216,0.929485216,0.641311111,0.641311111,0.641311111,0.144087052,0.144087052,0.144087052,C-Const,6,0,0,0,0,0,1,0,0,0,141
180.5411,0.06877083,-139.6023,391.1503,0.1995955,-151.164,388.738,FALSE,1,3,6.547802638,Dec,171.7396358,0,0,1,-0.275710332,0.150362524,-0.986904919,C,0,1,0,7,-150.9089512,-149.633707,-150.3138372,-151.321956,-152.111736,-151.69052,-151.095345,-150.75207,-150.93515,388.580044,387.790264,388.21148,388.4829512,387.207707,387.8878372,388.4459615,386.9857689,387.7645383,6.373106507,5.659533762,6.004132739,6.30977945,5.216445468,5.776882994,6.251104225,4.773806375,5.560185988,11.59511003,10.57917618,11.10737111,12.01936298,13.11602177,12.52073182,11.80692721,11.90212963,11.82780078,0.06877083,0.930465585,0.930465585,0.930465585,0.640330742,0.640330742,0.640330742,0.145067422,0.145067422,0.145067422,C-Dec,9,0,0,0,0,0,1,0,0,0,142
181.6522,0.04923782,-139.6821,391.1434,0.7860265,-151.0013,387.8053,FALSE,1,3,5.605190716,Acc,239.6765839,1,0,0,0.149218342,0.592142251,-3.334277203,C,0,1,0,7,-150.7558698,-149.528719,-150.1831995,-151.1738226,-152.0364354,-151.5763752,-150.9497465,-150.6919793,-150.8294552,387.6327774,386.7701646,387.2302248,387.5598698,386.332719,386.9871995,387.5097628,386.0320767,386.820176,5.420641905,4.680741094,5.033436399,5.375992737,4.360845408,4.871202398,5.306822729,3.818820511,4.611454366,11.61692082,10.77409368,11.20651732,12.03749874,13.25791291,12.59951531,11.83905309,12.13849527,11.95632858,0.04923782,0.886927494,0.886927494,0.886927494,0.683868833,0.683868833,0.683868833,0.10152933,0.10152933,0.10152933,C-Acc,3,0,0,0,0,0,0,0,0,1,143
182.7633,0.02715803,-139.6667,391.1374,0.5311885,-150.8119,386.2156,FALSE,1,3,4.00676507,Const,448.6179241,0,1,0,-0.2536929,0.400163549,-3.10079388,C,0,1,0,7,-150.5761614,-149.3974682,-150.0261046,-150.997446,-151.9251757,-151.4303865,-150.7764084,-150.5989505,-150.6935947,386.030054,385.1023243,385.5971135,385.9798614,384.8011682,385.4298046,385.9177068,384.4282409,385.2226227,3.815846337,3.129419748,3.431601588,3.78619556,2.905310526,3.320321463,3.70747848,2.213944086,3.009695581,12.04580135,11.45032703,11.74785247,12.44933767,13.79920503,13.07520423,12.2748042,12.82680462,12.51307306,0.02715803,0.851745713,0.851745713,0.851745713,0.719050614,0.719050614,0.719050614,0.06634755,0.06634755,0.06634755,C-Const,6,0,0,1,0,0,0,0,0,0,144
183.8745,0.05845829,-139.6058,391.1321,0.2222399,-150.3351,384.6893,FALSE,1,3,2.489424584,Dec,214.0858534,0,0,1,0.527069033,0.167421371,10.55394809,L,1,0,0,7,-150.0693646,-148.7406874,-149.4493152,-150.4743289,-151.1704732,-150.7991962,-150.2456463,-149.7983781,-150.0369212,384.5500711,383.8539268,384.2252038,384.4235646,383.0948874,383.8035152,384.402947,382.971182,383.73479,2.395886783,2.481021377,2.318195524,2.212990975,1.047759766,1.601316877,2.217580434,1.104447408,1.622342594,12.36160537,11.67981046,12.02497431,12.77221075,14.08326855,13.3790984,12.58919499,13.05715248,12.78782562,0.05845829,1.195885127,1.195885127,1.195885127,0.3749112,0.3749112,0.3749112,0.410486964,0.410486964,0.410486964,L-Dec,7,0,0,0,0,0,1,0,0,0,145
184.9856,0.04450966,-139.6161,391.1256,1.702333,-149.5927,383.6976,FALSE,1,3,1.794513552,Acc,279.4484675,1,0,0,0.606827513,1.282429148,19.47076819,L,1,0,0,7,-149.2957529,-147.8110177,-148.6028765,-149.6353901,-149.8488406,-149.7350003,-149.4129132,-148.5139791,-148.9934106,383.6549099,383.4414594,383.5552997,383.4006529,381.9159177,382.7077765,383.4574403,382.2566416,382.8970675,1.945113749,3.049493489,2.407815244,1.530725889,0.81076262,0.998209268,1.720752855,2.089150038,1.748137262,12.22730108,11.23399715,11.75038716,12.6515209,13.76688887,13.16251864,12.4409896,12.56306793,12.47568437,0.04450966,2.02581283,2.02581283,2.02581283,0.455016504,0.455016504,0.455016504,1.240414667,1.240414667,1.240414667,L-Acc,1,0,0,0,0,0,0,1,0,0,146
186.0967,1.498807,-140.7539,391.0863,1.570732,-148.6351,382.7586,FALSE,1,3,2.041497551,Const,7.649931466,0,1,0,-0.12398524,1.183289345,8.742861497,C,0,1,0,7,-148.3351144,-146.8351866,-147.6351481,-148.632158,-148.6174482,-148.6252934,-148.4208979,-147.3498873,-147.9210929,382.761542,382.7762518,382.7684066,382.4586144,380.9586866,381.7586481,382.5485584,381.4983507,382.0584615,2.332684742,3.809192485,3.018840578,1.985629667,2.348997618,2.029225305,2.207258297,3.330671689,2.686131429,11.25950303,10.29752142,10.79531966,11.68348869,12.82201016,12.20507784,11.47501143,11.63768964,11.52694767,1.498807,2.881517058,2.881517058,2.881517058,1.310720731,1.310720731,1.310720731,2.096118895,2.096118895,2.096118895,C-Const,6,1,0,0,0,0,0,0,0,0,147
187.2078,3.582615,-144.1741,390.9529,1.426813,-147.5905,382.4583,FALSE,1,3,25.4078133,Const,2.555639783,0,1,0,-0.407837323,1.074869946,28.39931357,L,1,0,0,8,-147.3280156,-146.0155939,-146.7155522,-147.4452348,-146.7189091,-147.1062828,-147.3021776,-145.8605654,-146.6294252,382.6035652,383.3298909,382.9425172,382.1958156,380.8833939,381.5833522,382.3754135,381.9609811,382.1820117,25.14559849,23.84788995,24.53713101,25.26418196,24.58838052,24.93986142,25.11971356,23.68364775,24.44859405,0,0,0,0,0,0,0,0,0,0,0.504444928,0.504444928,0.504444928,1.066351398,1.066351398,1.066351398,0.280953235,0.280953235,0.280953235,L-Const,4,0,0,0,0,0,1,0,0,0,148
188.3189,5.659356,-149.9009,390.7186,0.6644359,-146.4251,382.6879,FALSE,1,3,24.24325495,Dec,1.546221642,0,0,1,-0.07699262,0.500543645,27.18413135,L,1,0,0,8,-146.2579735,-145.4223411,-145.8680117,-146.175964,-144.9302841,-145.5946467,-146.130758,-144.6590479,-145.44396,382.937036,384.1827159,383.5183533,382.5207735,381.6851411,382.1308117,382.7458895,383.0358368,382.8811982,24.07952999,23.30162084,23.70787331,23.99329174,22.76161765,23.41461517,23.94948664,22.48311385,23.26464577,0,0,0,0,0,0,0,0,0,0,0.988319143,0.988319143,0.988319143,0.582477184,0.582477184,0.582477184,0.20292098,0.20292098,0.20292098,L-Dec,7,0,0,0,1,0,0,0,0,0,149
189.43,7.721045,-157.9214,390.3441,1.25572,-145.1791,382.6805,FALSE,1,3,22.99723695,Acc,1.92581833,1,0,0,0.465404149,0.945979388,-11.48560385,R,0,0,1,8,-144.9657119,-143.8987713,-144.4678063,-144.9682315,-143.9138892,-144.4762051,-144.8791053,-143.3791317,-144.1791176,382.8913685,383.9457108,383.3833949,382.4671119,381.4001713,381.9692063,382.6787183,382.66981,382.6745611,22.78664817,21.76518946,22.30323591,22.78553802,21.75821501,22.29945498,22.69723797,21.19724351,21.99724047,0,0,0,0,0,0,0,0,0,0,0.787990792,0.787990792,0.787990792,0.782805535,0.782805535,0.782805535,0.002592628,0.002592628,0.002592628,R-Acc,2,0,0,0,0,0,0,1,0,0,150
190.5411,9.721162,-168.1523,389.6902,1.698657,-144.0838,382.5739,FALSE,1,3,21.90128328,Const,2.581840971,0,1,0,0.029551346,1.279659884,-5.218524901,C,0,1,0,8,-143.8521169,-142.6937015,-143.311523,-143.8932142,-142.9402852,-143.448514,-143.7852108,-142.2922648,-143.0885027,382.7644858,383.7174148,383.209186,382.3422169,381.1838015,381.801623,382.5448398,382.399539,382.4770328,21.67122824,20.54803526,21.14125405,21.71097912,20.79828455,21.27676886,21.60259564,20.10974347,20.90580395,0,0,0,0,0,0,0,0,0,0,0.692469883,0.692469883,0.692469883,0.878326444,0.878326444,0.878326444,0.092928281,0.092928281,0.092928281,C-Const,6,0,1,0,0,0,0,0,0,0,151
191.6522,11.71181,-180.5587,388.4024,1.321389,-142.5037,382.5204,FALSE,1,3,20.32103207,Const,3.287868811,0,1,0,-0.048396184,0.995450226,3.619585799,C,0,1,0,8,-142.2845111,-141.1885664,-141.7730702,-142.2988678,-141.274707,-141.8209261,-142.2038718,-140.7047309,-141.5042727,382.7252322,383.749393,383.2031739,382.3012111,381.2052664,381.7897702,382.5102482,382.4594894,382.4865608,20.10325488,19.04792427,19.60355544,20.11700102,19.13480231,19.65050374,20.02118863,18.5220475,19.32157284,0,0,0,0,0,0,0,0,0,0,0.753328962,0.753328962,0.753328962,0.817467365,0.817467365,0.817467365,0.032069201,0.032069201,0.032069201,C-Const,6,0,0,0,0,0,1,0,0,0,152
192.7633,13.66545,-194.9967,385.9208,1.591111,-141.0547,382.4811,FALSE,1,3,18.87200027,Const,3.955344156,0,1,0,0.021768528,1.198641584,0.385610977,C,0,1,0,8,-140.8368946,-139.7478675,-140.3286819,-140.8483973,-139.8168839,-140.3670244,-140.7548103,-139.2553617,-140.0550676,382.6874027,383.7189161,383.1687756,382.2632946,381.1742675,381.7550819,382.4729663,382.4322981,382.4539878,18.65530022,17.60850324,18.15888674,18.66700564,17.68277765,18.19893984,18.57211374,17.07274088,17.87239331,0,0,0,0,0,0,0,0,0,0,0.758113094,0.758113094,0.758113094,0.812683232,0.812683232,0.812683232,0.027285069,0.027285069,0.027285069,C-Const,6,0,0,0,0,0,1,0,0,0,153
193.8745,15.60504,-211.3375,381.9875,1.369721,-139.5375,382.565,FALSE,1,3,17.35498763,Const,4.601226426,0,1,0,-0.052655215,1.031860473,4.718793074,C,0,1,0,8,-139.3374044,-138.3369265,-138.8705147,-139.3139787,-138.1963724,-138.7924291,-139.2379577,-137.7402459,-138.5390255,382.7885213,383.9061276,383.3100709,382.3649044,381.3644265,381.8980147,382.5815645,382.6643868,382.6202149,17.15740173,16.21667746,16.70823324,17.13169479,16.05278231,16.62007314,17.05553499,15.55858817,16.3568902,0,0,0,0,0,0,0,0,0,0,0.84529111,0.84529111,0.84529111,0.725505216,0.725505216,0.725505216,0.059892947,0.059892947,0.059892947,C-Const,6,0,0,0,0,0,1,0,0,0,154
194.9856,17.0667,-228.8302,375.5245,1.474066,-138.1834,382.5422,FALSE,1,3,16.00080476,Const,5.327218652,0,1,0,0.027557376,1.110467343,-4.129830011,C,0,1,0,8,-137.9677267,-136.8893603,-137.464489,-137.9748694,-136.9322161,-137.4882978,-137.8834425,-136.3836551,-137.1835417,382.7507306,383.7933839,383.2373022,382.3265267,381.2481603,381.823289,382.5371494,382.5118963,382.5253646,15.78727505,14.76480804,15.30032968,15.79295746,14.80122518,15.3198649,15.70083146,14.20098192,15.00089793,0,0,0,0,0,0,0,0,0,0,0.772180578,0.772180578,0.772180578,0.798615749,0.798615749,0.798615749,0.013217585,0.013217585,0.013217585,C-Const,6,0,0,0,0,0,1,0,0,0,155
196.0967,14.90175,-244.0724,368.3419,1.430959,-136.9509,382.5211,FALSE,1,3,14.76824585,Const,7.25121843,0,1,0,-0.157199172,1.077993278,-0.016148368,C,0,1,0,8,-136.7351679,-135.6565077,-136.2317932,-136.7424301,-135.7000809,-136.2560005,-136.650944,-135.1511637,-135.9510465,382.7295699,383.7719191,383.2159995,382.3053679,381.2267077,381.8019932,382.5159648,382.4902891,382.5039828,14.55453471,13.53519325,14.0681343,14.5608296,13.57575501,14.0898307,14.4682786,12.9684651,13.76836058,0,0,0,0,0,0,0,0,0,0,0.770771996,0.770771996,0.770771996,0.800024331,0.800024331,0.800024331,0.014626168,0.014626168,0.014626168,C-Const,6,0,0,0,0,0,1,0,0,0,156
197.2078,15.11008,-258.8885,360.4736,1.124738,-135.4439,382.7534,FALSE,1,3,13.26393005,Const,8.301680992,0,1,0,0.009401494,0.8473059,9.743806999,C,0,1,0,8,-135.2665621,-134.3798725,-134.8527736,-135.2019263,-133.9920579,-134.6373211,-135.1474019,-133.6649115,-134.4555731,382.9953737,384.2052421,383.5599789,382.5760621,381.6893725,382.1622736,382.7991044,383.0276263,382.9057479,13.09383989,12.31798108,12.71565374,13.0195497,11.83608231,12.45878353,12.96852335,11.49505917,12.28010716,0,0,0,0,0,0,0,0,0,0,0.958631171,0.958631171,0.958631171,0.612165156,0.612165156,0.612165156,0.173233007,0.173233007,0.173233007,C-Const,6,0,0,0,0,0,1,0,0,0,157
198.3189,14.8585,-272.9444,351.7584,1.451851,-134.2022,382.8426,FALSE,1,3,12.02483926,Const,9.56904559,0,1,0,0.012757628,1.093731979,-4.654119244,C,0,1,0,8,-134.005813,-133.0238778,-133.5475766,-133.9754135,-132.8414807,-133.4462449,-133.9029711,-132.4068266,-133.2047703,383.0693865,384.2033193,383.5985551,382.646213,381.6642778,382.1879766,382.8640957,382.9715742,382.9142524,11.83758112,10.97661899,11.41936882,11.79382493,10.69027797,11.26744205,11.72642313,10.23573158,11.030453,0,0,0,0,0,0,0,0,0,0,0.886913036,0.886913036,0.886913036,0.68388329,0.68388329,0.68388329,0.101514873,0.101514873,0.101514873,C-Const,6,0,0,0,0,0,1,0,0,0,158
199.43,15.04287,-285.9521,341.4117,1.153088,-132.8793,382.6808,FALSE,1,3,10.69840473,Const,10.53910516,0,1,0,-0.164243092,0.868662983,-11.081944,R,0,0,1,8,-132.6429837,-131.4614021,-132.091579,-132.6944904,-131.7704422,-132.2632679,-132.581519,-131.0926139,-131.8866966,382.8656096,383.7896578,383.2968321,382.4444837,381.2629021,381.893079,382.6443793,382.4622757,382.5593976,10.46723134,9.370073237,9.942137136,10.51186577,9.665226995,10.09789043,10.40005104,8.909941147,9.704287205,0,0,0,0,0,0,0,0,0,0,0.682063816,0.682063816,0.682063816,0.88873251,0.88873251,0.88873251,0.103334347,0.103334347,0.103334347,R-Const,5,0,0,0,0,0,1,0,0,0,159
200.5411,15.06714,-297.8848,329.6621,1.08687,-131.4651,382.4835,FALSE,1,3,9.282400034,Const,11.58821835,0,1,0,0.195580956,0.818778563,-0.969224757,C,0,1,0,8,-131.2256914,-130.0286483,-130.6670713,-131.2843142,-130.3803851,-130.8624806,-131.1679777,-129.682366,-130.4746922,382.6642858,383.5682149,383.0861194,382.2440914,381.0470483,381.6854713,382.4420474,382.2347845,382.3453247,9.044782363,7.920465643,8.505688826,9.104783405,8.322723902,8.716462505,8.985377006,7.503815541,8.29315675,0,0,0,0,0,0,0,0,0,0,0.646693211,0.646693211,0.646693211,0.924103116,0.924103116,0.924103116,0.138704952,0.138704952,0.138704952,C-Const,6,0,0,0,0,1,0,0,0,0,160
201.6522,15.01894,-300.8239,326.4806,1.587708,-129.899,382.5472,FALSE,1,3,7.716556363,Const,11.97724191,0,1,0,0.194262893,1.196077981,10.27145139,L,1,0,0,8,-129.6956644,-128.6789865,-129.2212147,-129.678422,-128.5755322,-129.1637401,-129.5992479,-128.1004871,-128.8998262,382.767778,383.8706678,383.2824599,382.3438644,381.3271865,381.8694147,382.5593922,382.6203532,382.5878407,7.518310585,6.642571323,7.083625385,7.497037478,6.496708027,7.008067132,7.416927995,5.919350876,6.717924137,0,0,0,0,0,0,0,0,0,0,0.834201436,0.834201436,0.834201436,0.736594891,0.736594891,0.736594891,0.048803273,0.048803273,0.048803273,L-Const,4,0,0,0,0,0,1,0,0,0,161
202.7633,15.01894,-300.8239,326.4806,1.518561,-128.6243,382.5357,FALSE,1,3,6.441805067,Const,12.05767899,0,1,0,0.001200699,1.14398704,-2.846074114,C,0,1,0,8,-128.4102629,-127.3400773,-127.9108429,-128.4140903,-127.3630419,-127.9236011,-128.3243122,-126.8243732,-127.6243407,382.7459097,383.7969581,383.2363989,382.3216629,381.2514773,381.8222429,382.5329936,382.5194615,382.5266786,6.233055352,5.321805289,5.777306829,6.233512343,5.325015886,5.778950126,6.141805238,4.641806424,5.44180571,0,0,0,0,0,0,0,0,0,0,0.784355892,0.784355892,0.784355892,0.786440435,0.786440435,0.786440435,0.001042271,0.001042271,0.001042271,C-Const,6,0,0,0,1,0,0,0,0,0,162
203.8745,15.01894,-300.8239,326.4806,1.590389,-127.4409,382.5657,FALSE,1,3,5.258830022,Const,12.1332422,0,1,0,0.013235711,1.198097675,1.969069261,C,0,1,0,8,-127.2342121,-126.2007724,-126.7519402,-127.2234601,-126.1362608,-126.7161004,-127.1409964,-125.6414781,-126.4412212,382.7831399,383.8703392,383.2904996,382.3590121,381.3255724,381.8767402,382.5733028,382.6113166,382.5910425,5.060343801,4.250412954,4.639818294,5.042316905,4.11986561,4.573931399,4.9590951,3.46110954,4.259858749,0,0,0,0,0,0,0,0,0,0,0.826222766,0.826222766,0.826222766,0.744573561,0.744573561,0.744573561,0.040824602,0.040824602,0.040824602,C-Const,6,0,0,0,0,0,1,0,0,0,163
204.9856,15.01894,-300.8239,326.4806,1.547985,-126.1485,382.6465,FALSE,1,3,3.969115579,Const,12.21679105,0,1,0,-0.715682207,1.166153205,2.125262185,C,0,1,0,8,-125.9500178,-124.9576071,-125.4868928,-125.9235448,-124.7987689,-125.3986494,-125.8490846,-124.3520075,-125.1504486,382.8714552,383.9962311,383.3963506,382.4480178,381.4556071,381.9848928,382.6652193,382.7588155,382.7088975,3.787158944,3.16007038,3.427758223,3.741020764,2.811054201,3.254495054,3.670845641,2.186607853,2.976235195,0,0,0,0,0,0,0,0,0,0,0.888713152,0.888713152,0.888713152,0.682083175,0.682083175,0.682083175,0.103314988,0.103314988,0.103314988,C-Const,6,0,0,0,0,0,1,0,0,0,164
206.0967,15.01894,-300.8239,326.4806,0,-125.3643,382.7228,FALSE,1,3,3.190526729,Dec,12.26805884,0,0,1,0.084321393,0,1.979754704,C,0,1,0,8,-125.1737077,-124.2207462,-124.7289923,-125.1326223,-123.9742336,-124.5920409,-125.06571,-123.5727599,-124.369,382.9544777,384.1128664,383.4950591,382.5322077,381.5792462,382.0874923,382.7518518,382.8971108,382.8196393,3.027737469,2.608804519,2.739569073,2.950311252,2.007165872,2.441798459,2.895398172,1.450061858,2.211867994,0,0,0,0,0,0,0,0,0,0,0.957211822,0.957211822,0.957211822,0.613584505,0.613584505,0.613584505,0.171813658,0.171813658,0.171813658,C-Dec,9,0,0,0,0,0,1,0,0,0,165
207.2078,15.01894,-300.8239,326.4806,1.735364,-124.6577,382.6664,FALSE,1,3,2.481690031,Acc,12.31172752,1,0,0,0.073446944,1.307312597,-10.12080112,R,0,0,1,8,-124.4293621,-123.2876723,-123.8965735,-124.463119,-123.4902138,-124.0090965,-124.3586511,-122.8634067,-123.6608704,382.860981,383.8338862,383.3150035,382.4380621,381.2963723,381.9052735,382.6425303,382.5231816,382.5868342,2.278020847,1.744232449,1.904581488,2.280887673,1.766568544,1.915984335,2.181696604,0.681816232,1.48172229,0,0,0,0,0,0,0,0,0,0,0.7791916,0.7791916,0.7791916,0.791604727,0.791604727,0.791604727,0.006206564,0.006206564,0.006206564,R-Acc,2,0,0,0,0,0,0,0,0,1,166
208.3189,15.01894,-300.8239,326.4806,0.1632138,-124.5668,382.6591,FALSE,1,3,2.390499498,Dec,12.31734624,0,0,1,-0.682085681,0.122954871,-0.027849428,C,0,1,0,8,-124.3383675,-123.196205,-123.8053583,-124.37233,-123.3999798,-123.9185666,-124.2677628,-122.7725765,-123.5700092,382.85357,383.8259202,383.3073334,382.4306675,381.288505,381.8976583,382.6350849,382.5150094,382.5790497,2.187067152,1.681409261,1.819451593,2.190286704,1.706369196,1.832315796,2.090507778,0.590675354,1.390540993,0,0,0,0,0,0,0,0,0,0,0.778450227,0.778450227,0.778450227,0.792346099,0.792346099,0.792346099,0.006947936,0.006947936,0.006947936,C-Dec,9,0,1,0,0,0,0,0,0,0,167
209.43,15.01894,-300.8239,326.4806,0.2196332,-124.5668,382.6591,FALSE,1,3,2.390499498,Const,12.31734624,0,1,0,1.344387184,0.16545765,0,C,0,1,0,8,-124.5668,-124.5668,-124.5668,-124.5668,-124.5668,-124.5668,-124.5668,-124.5668,-124.5668,382.6591,382.6591,382.6591,382.6591,382.6591,382.6591,382.6591,382.6591,382.6591,2.390499498,2.390499498,2.390499498,2.390499498,2.390499498,2.390499498,2.390499498,2.390499498,2.390499498,0,0,0,0,0,0,0,0,0,0,0,0,0,0,0,0,0,0,0,C-Const,6,0,0,0,0,0,0,0,0,1,168
210.5411,15.01894,-300.8239,326.4806,3.150711,-123.2402,382.6946,FALSE,1,3,1.07820793,Acc,12.4022455,1,0,0,0.734152102,2.37354479,0,C,0,1,0,8,-123.0338185,-122.0019112,-122.5522618,-123.0224692,-121.9338154,-122.5144308,-122.9403074,-121.4408441,-122.2405579,382.9123308,384.0009846,383.4203692,382.4882185,381.4563112,382.0066618,382.7026252,382.742751,382.7213506,0.952687302,1.527421641,1.006380406,0.83977837,1.057688313,0.581535534,0.788438196,0.785587061,0.244009223,0,0,0,0,0,0,0,0,0,0,1.008456132,1.008456132,1.008456132,0.562340195,0.562340195,0.562340195,0.223057968,0.223057968,0.223057968,C-Acc,3,0,0,0,0,0,1,0,0,0,169
211.6522,15.01894,-300.8239,326.4806,1.851066,-121.2503,382.8499,FALSE,1,3,1.001515412,Const,12.53171747,0,1,0,-1.320670012,1.394475107,2.929676047,C,0,1,0,8,-121.0553165,-120.0803992,-120.6003551,-121.0223056,-119.8823336,-120.4903187,-120.9512095,-119.4557569,-120.2533316,383.0778944,384.2178664,383.6098813,382.6549165,381.6799992,382.1999551,382.8732423,382.9899535,382.9277075,1.274106666,2.724870854,1.941841576,1.172870484,2.436921302,1.716102161,1.291450727,2.773428254,1.979664783,0,0,0,0,0,0,0,0,0,0,2.651991319,2.651991319,2.651991319,2.060397661,2.060397661,2.060397661,2.845795825,2.845795825,2.845795825,C-Const,6,0,0,1,0,0,0,0,0,0,170
212.7633,15.01894,-300.8239,326.4806,0.2159181,-119.526,382.8337,FALSE,1,3,27.0781423,Dec,12.64098236,0,0,1,-0.791442801,0.16265893,-5.00083793,C,0,1,0,9,-119.3118844,-118.2413065,-118.8122814,-119.3158702,-118.2652215,-118.8255675,-119.2260132,-117.7260794,-118.5260441,383.0438298,384.0944785,383.5341325,382.6195844,381.5490065,382.1199814,382.8308816,382.8167895,382.8243053,26.87411335,25.88201805,26.4051709,26.85981921,25.79283579,26.35664591,26.77831185,25.27921993,26.07872262,0,0,0,0,0,0,0,0,0,0,0.818833238,0.818833238,0.818833238,0.751963088,0.751963088,0.751963088,0.033435075,0.033435075,0.033435075,C-Dec,9,0,0,0,0,0,1,0,0,0,171
213.8745,15.01894,-300.8239,326.4806,0.09237871,-119.526,382.8337,FALSE,1,3,27.0781423,Dec,12.64098236,0,0,1,-0.097158483,0.06959223,0,C,0,1,0,9,-119.526,-119.526,-119.526,-119.526,-119.526,-119.526,-119.526,-119.526,-119.526,382.8337,382.8337,382.8337,382.8337,382.8337,382.8337,382.8337,382.8337,382.8337,27.0781423,27.0781423,27.0781423,27.0781423,27.0781423,27.0781423,27.0781423,27.0781423,27.0781423,0,0,0,0,0,0,0,0,0,0,0,0,0,0,0,0,0,0,0,C-Dec,9,0,0,0,0,0,0,0,0,1,172
214.9856,15.01894,-300.8239,326.4806,0,-119.526,382.8337,FALSE,1,3,27.0781423,Dec,12.64098236,0,0,1,-0.016090572,0,0,C,0,1,0,9,-119.526,-119.526,-119.526,-119.526,-119.526,-119.526,-119.526,-119.526,-119.526,382.8337,382.8337,382.8337,382.8337,382.8337,382.8337,382.8337,382.8337,382.8337,27.0781423,27.0781423,27.0781423,27.0781423,27.0781423,27.0781423,27.0781423,27.0781423,27.0781423,0,0,0,0,0,0,0,0,0,0,0,0,0,0,0,0,0,0,0,C-Dec,9,0,0,0,0,0,0,0,0,1,173
216.0967,15.01894,-300.8239,326.4806,0.05662224,-119.526,382.8337,FALSE,1,3,27.0781423,Const,12.64098236,0,1,0,0.018665359,0.042655586,0,C,0,1,0,9,-119.526,-119.526,-119.526,-119.526,-119.526,-119.526,-119.526,-119.526,-119.526,382.8337,382.8337,382.8337,382.8337,382.8337,382.8337,382.8337,382.8337,382.8337,27.0781423,27.0781423,27.0781423,27.0781423,27.0781423,27.0781423,27.0781423,27.0781423,27.0781423,0,0,0,0,0,0,0,0,0,0,0,0,0,0,0,0,0,0,0,C-Const,6,0,0,0,0,0,0,0,0,1,174
217.2078,15.01894,-300.8239,326.4806,0.04147816,-119.526,382.8337,FALSE,1,3,27.0781423,Const,12.64098236,0,1,0,-0.017663275,0.031247001,0,C,0,1,0,9,-119.526,-119.526,-119.526,-119.526,-119.526,-119.526,-119.526,-119.526,-119.526,382.8337,382.8337,382.8337,382.8337,382.8337,382.8337,382.8337,382.8337,382.8337,27.0781423,27.0781423,27.0781423,27.0781423,27.0781423,27.0781423,27.0781423,27.0781423,27.0781423,0,0,0,0,0,0,0,0,0,0,0,0,0,0,0,0,0,0,0,C-Const,6,0,0,0,0,0,1,0,0,0,175
218.3189,15.01894,-300.8239,326.4806,0.01737091,-119.526,382.8337,FALSE,1,3,27.0781423,Dec,12.64098236,0,0,1,-0.011090289,0.013086136,0,C,0,1,0,9,-119.526,-119.526,-119.526,-119.526,-119.526,-119.526,-119.526,-119.526,-119.526,382.8337,382.8337,382.8337,382.8337,382.8337,382.8337,382.8337,382.8337,382.8337,27.0781423,27.0781423,27.0781423,27.0781423,27.0781423,27.0781423,27.0781423,27.0781423,27.0781423,0,0,0,0,0,0,0,0,0,0,0,0,0,0,0,0,0,0,0,C-Dec,9,0,0,0,0,0,1,0,0,0,176
219.43,15.01894,-300.8239,326.4806,0.01683332,-119.526,382.8337,FALSE,1,3,27.0781423,Const,12.64098236,0,1,0,-0.002786936,0.01268115,0,C,0,1,0,9,-119.526,-119.526,-119.526,-119.526,-119.526,-119.526,-119.526,-119.526,-119.526,382.8337,382.8337,382.8337,382.8337,382.8337,382.8337,382.8337,382.8337,382.8337,27.0781423,27.0781423,27.0781423,27.0781423,27.0781423,27.0781423,27.0781423,27.0781423,27.0781423,0,0,0,0,0,0,0,0,0,0,0,0,0,0,0,0,0,0,0,C-Const,6,0,0,0,0,0,0,0,0,1,177
220.5411,15.01894,-300.8239,326.4806,0.01117778,-119.526,382.8337,FALSE,1,3,27.0781423,Const,12.64098236,0,1,0,-0.004485134,0.008420627,0,C,0,1,0,9,-119.526,-119.526,-119.526,-119.526,-119.526,-119.526,-119.526,-119.526,-119.526,382.8337,382.8337,382.8337,382.8337,382.8337,382.8337,382.8337,382.8337,382.8337,27.0781423,27.0781423,27.0781423,27.0781423,27.0781423,27.0781423,27.0781423,27.0781423,27.0781423,0,0,0,0,0,0,0,0,0,0,0,0,0,0,0,0,0,0,0,C-Const,6,0,0,0,0,0,1,0,0,0,178
221.6522,15.01894,-300.8239,326.4806,0.006866455,-119.526,382.8337,FALSE,1,3,27.0781423,Const,12.64098236,0,1,0,-0.000395149,0.005172749,0,C,0,1,0,9,-119.526,-119.526,-119.526,-119.526,-119.526,-119.526,-119.526,-119.526,-119.526,382.8337,382.8337,382.8337,382.8337,382.8337,382.8337,382.8337,382.8337,382.8337,27.0781423,27.0781423,27.0781423,27.0781423,27.0781423,27.0781423,27.0781423,27.0781423,27.0781423,0,0,0,0,0,0,0,0,0,0,0,0,0,0,0,0,0,0,0,C-Const,6,0,0,0,0,0,1,0,0,0,179
222.7633,15.01894,-300.8239,326.4806,0.01029968,-119.526,382.8337,FALSE,1,3,27.0781423,Const,12.64098236,0,1,0,0.001545036,0.007759122,0,C,0,1,0,9,-119.526,-119.526,-119.526,-119.526,-119.526,-119.526,-119.526,-119.526,-119.526,382.8337,382.8337,382.8337,382.8337,382.8337,382.8337,382.8337,382.8337,382.8337,27.0781423,27.0781423,27.0781423,27.0781423,27.0781423,27.0781423,27.0781423,27.0781423,27.0781423,0,0,0,0,0,0,0,0,0,0,0,0,0,0,0,0,0,0,0,C-Const,6,0,0,0,0,0,1,0,0,0,180
223.8745,15.01894,-300.8239,326.4806,0.01029968,-119.526,382.8337,FALSE,1,3,27.0781423,Const,12.64098236,0,1,0,0.004363323,0.007759122,0,C,0,1,0,9,-119.526,-119.526,-119.526,-119.526,-119.526,-119.526,-119.526,-119.526,-119.526,382.8337,382.8337,382.8337,382.8337,382.8337,382.8337,382.8337,382.8337,382.8337,27.0781423,27.0781423,27.0781423,27.0781423,27.0781423,27.0781423,27.0781423,27.0781423,27.0781423,0,0,0,0,0,0,0,0,0,0,0,0,0,0,0,0,0,0,0,C-Const,6,0,0,0,0,0,1,0,0,0,181
224.9856,15.01894,-300.8239,326.4806,0.01999542,-119.526,382.8337,FALSE,1,3,27.0781423,Const,12.64098236,0,1,0,0.098945738,0.015063275,0,C,0,1,0,9,-119.526,-119.526,-119.526,-119.526,-119.526,-119.526,-119.526,-119.526,-119.526,382.8337,382.8337,382.8337,382.8337,382.8337,382.8337,382.8337,382.8337,382.8337,27.0781423,27.0781423,27.0781423,27.0781423,27.0781423,27.0781423,27.0781423,27.0781423,27.0781423,0,0,0,0,0,0,0,0,0,0,0,0,0,0,0,0,0,0,0,C-Const,6,0,0,0,0,0,1,0,0,0,182
226.0967,15.01894,-300.8239,326.4806,0.2301769,-119.526,382.8337,FALSE,1,3,27.0781423,Const,12.64098236,0,1,0,0.71394365,0.173400601,0,C,0,1,0,9,-119.526,-119.526,-119.526,-119.526,-119.526,-119.526,-119.526,-119.526,-119.526,382.8337,382.8337,382.8337,382.8337,382.8337,382.8337,382.8337,382.8337,382.8337,27.0781423,27.0781423,27.0781423,27.0781423,27.0781423,27.0781423,27.0781423,27.0781423,27.0781423,0,0,0,0,0,0,0,0,0,0,0,0,0,0,0,0,0,0,0,C-Const,6,0,0,0,0,0,1,0,0,0,183
227.2078,15.01894,-300.8239,326.4806,1.606521,-117.9268,382.8873,FALSE,1,3,25.482996,Acc,12.74375302,1,0,0,0.025689857,1.210250496,0,C,0,1,0,9,-117.721893,-116.697358,-117.2437767,-117.707681,-116.6120862,-117.1964034,-117.6269684,-116.1278102,-116.9273612,383.106419,384.2020138,383.6176966,382.682393,381.657858,382.2042767,382.8973494,382.9475963,382.9207979,25.28978484,24.35618768,24.84720358,25.25511876,24.13940177,24.72939306,25.18399432,23.68936458,24.48641871,0,0,0,0,0,0,0,0,0,0,0.866520742,0.866520742,0.866520742,0.704275585,0.704275585,0.704275585,0.081122579,0.081122579,0.081122579,C-Acc,3,0,0,0,0,0,1,0,0,0,184
228.3189,15.01894,-300.8239,326.4806,0.2872649,-116.3278,382.9407,FALSE,1,3,23.88870114,Dec,12.84656843,0,0,1,0.080735757,0.216407061,-0.006918511,C,0,1,0,9,-116.1228665,-115.0981993,-115.6446885,-116.1087058,-115.0132346,-115.5974859,-116.0279672,-114.5288029,-115.3283572,383.1597942,384.2552654,383.6710141,382.7357665,381.7110993,382.2575885,382.9507132,383.0007791,382.9740773,23.69678341,22.77224303,23.25786708,23.65983839,22.54057468,23.13215103,23.58983494,22.09596487,22.89259581,0,0,0,0,0,0,0,0,0,0,0.871819,0.871819,0.871819,0.698977326,0.698977326,0.698977326,0.086420837,0.086420837,0.086420837,C-Dec,9,0,0,1,0,0,0,0,0,0,185
229.43,15.01894,-300.8239,326.4806,1.785932,-116.3278,382.9407,FALSE,1,3,23.88870114,Acc,12.84656843,1,0,0,0.443080326,1.345407304,0,C,0,1,0,9,-116.3278,-116.3278,-116.3278,-116.3278,-116.3278,-116.3278,-116.3278,-116.3278,-116.3278,382.9407,382.9407,382.9407,382.9407,382.9407,382.9407,382.9407,382.9407,382.9407,23.88870114,23.88870114,23.88870114,23.88870114,23.88870114,23.88870114,23.88870114,23.88870114,23.88870114,0,0,0,0,0,0,0,0,0,0,0,0,0,0,0,0,0,0,0,C-Acc,3,0,0,0,0,0,0,0,0,1,186
