"TimeStamp","v_Vehicle","pos_x","pos_z","v_EgoPerson","pos_x_left_foot","pos_z_left_foot","crossingDecisionToken","SubjectID","ScenarioID","speed","acc","const","dec","Velocity_gradient","sin_Angle","direction","left","central","right","dest","curr_dist_left_dec_x","curr_dist_left_acc_x","curr_dist_left_const_x","curr_dist_right_dec_x","curr_dist_right_acc_x","curr_dist_right_const_x","curr_dist_central_dec_x","curr_dist_central_acc_x","curr_dist_central_const_x","curr_dist_left_dec_z","curr_dist_left_acc_z","curr_dist_left_const_z","curr_dist_right_dec_z","curr_dist_right_acc_z","curr_dist_right_const_z","curr_dist_central_dec_z","curr_dist_central_acc_z","curr_dist_central_const_z","dest_dist_left_dec","dest_dist_left_acc","dest_dist_left_const","dest_dist_right_dec","dest_dist_right_acc","dest_dist_right_const","dest_dist_central_dec","dest_dist_central_acc","dest_dist_central_const","car_dist_left_dec","car_dist_left_acc","car_dist_left_const","car_dist_right_dec","car_dist_right_acc","car_dist_right_const","car_dist_central_dec","car_dist_central_acc","car_dist_central_const","v_Vehicle_Effect","Angle_Left_Acc","Angle_Left_Dec","Angle_Left_Const","Angle_Right_Acc","Angle_Right_Dec","Angle_Right_Const","Angle_Central_Acc","Angle_Central_Dec","Angle_Central_Const","Choice_Literal","Choice","PrevChoice_1","PrevChoice_2","PrevChoice_3","PrevChoice_4","PrevChoice_5","PrevChoice_6","PrevChoice_7","PrevChoice_8","PrevChoice_9","InvID","ID","Observation","left_acc","right_acc","centre_acc","left_dec","right_dec","centre_dec","left_const","right_const","centre_const","chosen","ID","Observation","left_acc","right_acc","centre_acc","left_dec","right_dec","centre_dec","left_const","right_const","centre_const","chosen"
55.31,8.662339,28.40291,369.267,1.297051,-140.4374,400.6395,"False",1,1,"Const",0,1,0,0.171623871623872,0,"C",0,1,0,2,-140.707762267046,-142.059573602275,-141.33860755682,-140.307383675803,-139.657302054816,-140.004012252675,-140.5366395679,-141.032837407401,-140.768198559667,400.769516324197,401.419597945184,401.072887747325,400.909862267046,402.261673602275,401.54070755682,400.92261041691,402.33816250146,401.5832013897,11.1405883943973,9.78758208089643,10.5042182609941,11.5373093154604,12.2383635259643,11.8460087300335,11.3078592661131,10.8778026937114,11.0840052615197,600,600,600,600,600,600,600,600,600,0,0.405767532774756,0.405767532774707,0.405767532774758,1.97656385956965,1.9765638595696,1.97656385956965,1.19116569617222,1.19116569617227,1.19116569617222,"C-Const",6,0,0,0,0,0,0,0,0,0,1,1,1,0.00116505712037991,0.0331360545983173,0.122299990134432,0.00107315053521128,0.0115663823004348,0.0720935073742934,0.00499859102023366,0.134102115893539,0.619565151023158,0.619565151023158,1,1,0.0011650571203799,0.0331360545983169,0.122299990134424,0.00107315053521126,0.0115663823004347,0.0720935073742926,0.00499859102023361,0.134102115893538,0.619565151023169,0.619565151023169
56.42111,7.913244,19.96986,371.4596,1.487744,-141.8317,400.7603,"False",1,1,"Const",0,1,0,0.0310905310905319,65.7310948253467,"L",1,0,0,2,-142.061350533808,-143.20960320285,-142.597201779361,-142.024730133196,-142.989880799174,-142.475133777319,-142.130580365915,-143.62498219549,-142.827967886383,400.567269866804,399.602119200825,400.116866222681,400.989950533808,402.13820320285,401.525801779361,400.786194533603,400.915667201617,400.84661511201,9.7971975558859,8.76626458044368,9.30022366201605,9.81888904533208,8.91069063020674,9.37616662688657,9.7180030403981,8.22036578012931,9.01900792644565,600,600,600,600,600,600,600,600,600,0,0.735319505009333,0.735319505009323,0.735319505009341,0.835476821785586,0.835476821785574,0.835476821785596,0.0500786583881347,0.0500786583881924,0.0500786583881414,"L-Const",4,0,0,0,0,0,1,0,0,0,2,2,1,0.00489788601298302,0.0105226469358434,0.0393838485013315,0.00849689008987077,0.00720184213772525,0.0450096957227251,0.031415822849029,0.0650607022028118,0.78801066554768,0.031415822849029,2,1,0.00489788601298311,0.0105226469358424,0.0393838485013277,0.00849689008987092,0.00720184213772538,0.0450096957227208,0.0314158228490296,0.0650607022028056,0.788010665547694,0.0314158228490296
57.53222,8.564402,10.82146,373.8081,1.366141,-143.1483,400.8372,"False",1,1,"Const",0,1,0,-0.0694305694305692,1.60891792271783,"C",0,1,0,2,-143.372440245249,-144.493141471497,-143.895434150832,-143.347701982085,-144.344711892511,-143.812973273617,-143.447789581067,-144.945237486403,-144.146598603557,400.637798017915,399.640788107489,400.172526726383,401.061340245249,402.182041471497,401.584334150832,400.854692593638,400.942155561829,400.895508645461,8.48421973380697,7.49778754694458,8.00405564958989,8.49523132440161,7.57222838275274,8.04289392695904,8.39923860212767,6.89986708008419,7.69950142465332,600,600,600,600,600,600,600,600,600,0,0.760065687453053,0.760065687453006,0.760065687453062,0.810730639341832,0.810730639341883,0.810730639341834,0.0253324759443866,0.0253324759444173,0.0253324759443998,"C-Const",6,0,0,0,1,0,0,0,0,0,3,3,1,0.00699328969639007,0.013775679244303,0.0515785104850484,0.0191546361702019,0.0149042306374023,0.0931571814229216,0.155799864406742,0.113881508780127,0.530755099156864,0.530755099156864,3,1,0.0069932896963904,0.013775679244302,0.0515785104850479,0.0191546361702017,0.0149042306374031,0.0931571814229207,0.15579986440675,0.113881508780126,0.530755099156859,0.530755099156859
58.64333,8.242634,1.866913,376.0612,1.333454,-144.7513,400.7519,"False",1,1,"Const",0,1,0,-0.40280449280449,6.38872706933083,"C",0,1,0,2,-144.951860158739,-145.954660952432,-145.419833862462,-144.974404510772,-146.089927064631,-145.494981702573,-145.05087616076,-146.54875696456,-145.749887202533,400.528795489228,399.413272935369,400.008218297427,400.952460158739,401.955260952432,401.420433862462,400.7359587358,400.656252414799,400.698762452666,6.91652364560876,6.13160806327257,6.51911403394278,6.87044480789978,5.81247731611747,6.35462216406209,6.80291702145113,5.3145932492051,6.10765503193858,600,600,600,600,600,600,600,600,600,0,0.891026868073677,0.891026868073717,0.8910268680737,0.679769458721209,0.679769458721172,0.679769458721236,0.105628704676235,0.1056287046762,0.105628704676257,"C-Const",6,0,0,0,0,0,1,0,0,0,4,4,1,0.001656439358955,0.00206045098178615,0.01114423620079,0.0206095888437791,0.0101977962528218,0.0917959523078159,0.0370930394506796,0.0446841018408716,0.780758394762501,0.780758394762501,4,1,0.00165643935895509,0.00206045098178603,0.0111442362007899,0.0206095888437802,0.0101977962528217,0.0917959523078156,0.0370930394506816,0.0446841018408715,0.780758394762498,0.780758394762498
59.75444,8.282255,-7.03743,378.23,0.4710208,-146.2603,400.6371,"False",1,1,"Dec",0,0,1,0.212321510225185,1.30451169455342,"C",0,1,0,2,-146.455728967459,-147.432873804751,-146.911729891528,-146.487912650523,-147.625975903138,-147.019008835077,-146.559435596799,-148.055113580793,-147.257418655996,400.409487349477,399.271424096862,399.878391164923,400.832528967458,401.809673804751,401.288529891528,400.614342699462,400.500556196769,400.561242331538,5.43418936280185,4.78327462986736,5.08593698702242,5.36273045132323,4.27206031807799,4.82648608325264,5.30781868591092,3.83860224756738,4.61972282087173,600,600,600,600,600,600,600,600,600,0,0.948382487427516,0.948382487427492,0.948382487427521,0.62241383936739,0.622413839367332,0.622413839367375,0.162984324030066,0.162984324030069,0.162984324030066,"C-Dec",9,0,0,0,0,0,1,0,0,0,5,5,1,0.00998310974646253,0.0101493424428009,0.0669861397174092,0.00752936901362017,0.00305555452194811,0.0335271961681525,0.0377541881365892,0.0372469154654683,0.793768184787549,0.0335271961681525,5,1,0.00998310974646313,0.0101493424428009,0.0669861397174056,0.00752936901362019,0.00305555452194812,0.0335271961681526,0.0377541881365893,0.0372469154654684,0.793768184787552,0.0335271961681526
60.86556,8.287434,-16.00941,380.3039,1.805301,-146.5006,400.4751,"False",1,1,"Acc",1,0,0,0.387784315263501,29.6356636275425,"L",1,0,0,2,-146.557913795067,-146.8444827704,-146.691645983555,-146.795074326377,-148.267445958261,-147.482181087923,-146.749351766214,-147.993110597281,-147.329772554045,400.180625673623,398.708254041739,399.493518912077,400.532413795067,400.8189827704,400.666145983555,400.307402180081,399.468913080485,399.916107266936,5.36837838328453,5.55152713644634,5.40303659408816,5.0822095805477,3.5882670014457,4.3845216712167,5.15844145830935,4.19042294080538,4.67185657021726,600,600,600,600,600,600,600,600,600,0,1.49950092440337,1.49950092440332,1.49950092440338,0.0712954023915232,0.0712954023915559,0.071295402391517,0.714102761005929,0.714102761005955,0.714102761005924,"L-Acc",1,0,0,0,0,0,0,0,0,1,6,6,1,0.0305405685210033,0.00450548099455277,0.203154449580462,0.0101836939540637,0.000615361275787731,0.117675076978495,0.0689257567412828,0.0100108775001399,0.554388734454214,0.0305405685210033,6,1,0.030540568521004,0.00450548099455261,0.203154449580455,0.0101836939540639,0.00061536127578771,0.117675076978491,0.0689257567412804,0.0100108775001395,0.554388734454226,0.030540568521004
61.97667,8.262795,-24.98482,382.2041,1.332783,-147.5739,399.5004,"False",1,1,"Const",0,1,0,-0.204862704862706,8.25748277254578,"C",0,1,0,2,-147.588326649317,-147.660459895901,-147.621988831056,-147.873552918874,-149.371817513242,-148.572743062912,-147.7959877925,-148.906426754998,-148.314192641665,399.200747081126,397.702482486758,398.501556937088,399.514826649317,399.586959895901,399.548488831056,399.298714570624,398.290287423743,398.828115235413,4.66902007263943,5.4036994163499,4.96922367636033,4.28305183463535,2.91009877135446,3.62984837294578,4.43944161469467,4.08084891311807,4.20984900571775,600,600,600,600,600,600,600,600,600,0,1.88619535469939,1.88619535469937,1.88619535469938,0.31539902790448,0.315399027904478,0.315399027904479,1.10079719130195,1.10079719130197,1.10079719130196,"C-Const",6,1,0,0,0,0,0,0,0,0,7,7,1,0.0173334711163794,0.000760859293752063,0.0443898888249996,0.0326413260879328,0.00153936640295107,0.14503476825445,0.0828618389703761,0.00934960647089225,0.666088874578267,0.666088874578267,7,1,0.0173334711163803,0.000760859293752014,0.0443898888249993,0.0326413260879344,0.00153936640295114,0.145034768254449,0.0828618389703801,0.00934960647089218,0.666088874578262,0.666088874578262
63.08778,8.2943,-34.03394,383.8944,1.350051,-148.7822,398.4493,"False",1,1,"Const",0,1,0,0.132996282996282,-1.22364679364897,"C",0,1,0,2,-148.803022460055,-148.907134760329,-148.851608200183,-149.081476502849,-150.577859017091,-149.779788342829,-149.00854414732,-150.140264883918,-149.536680491066,398.150023497151,396.653640982909,397.451711657171,398.470122460055,398.574234760329,398.518708200183,398.252403258092,397.26791954855,397.792977526972,4.25275913522559,5.34830209725171,4.73651087730356,3.83001483218683,2.8465163689368,3.32335871259325,4.03487673832367,4.21544250474271,4.051596647605,600,600,600,600,600,600,600,600,600,0,2.21961840797039,2.21961840797044,2.21961840797041,0.64882208117551,0.64882208117554,0.648822081175485,1.43422024457295,1.43422024457296,1.43422024457293,"C-Const",6,0,0,0,0,0,1,0,0,0,8,8,1,0.00859315556690948,0.000980379889565258,0.0574338796718764,0.00896750907526857,0.000422584056055646,0.039854928880274,0.0400943996099547,0.00451704679539963,0.839136116454696,0.839136116454696,8,1,0.00859315556690967,0.000980379889565224,0.0574338796718777,0.00896750907526877,0.000422584056055632,0.0398549288802749,0.0400943996099579,0.00451704679539922,0.839136116454691,0.839136116454691
64.19889,8.303517,-43.13055,385.3509,1.62833,-149.6604,397.5347,"False",1,1,"Const",0,1,0,0.186263025776931,5.14313829242534,"C",0,1,0,2,-149.654310224274,-149.623861345641,-149.640100747578,-149.960338184684,-151.460029108105,-150.660193948947,-149.868182202615,-150.907093215689,-150.353007342049,397.234761815316,395.735070891895,396.534906051053,397.528610224274,397.498161345641,397.514400747578,397.318305553961,396.236333323766,396.81338517987,4.46290904014636,5.82812451426024,5.09057759840676,4.05860455908478,3.64627461282627,3.79864359652386,4.28769334904807,4.97670355585159,4.56104930926756,600,600,600,600,600,600,600,600,600,0,2.61564816349459,2.61564816349456,2.61564816349459,1.0448518366997,1.04485183669976,1.04485183669967,1.83025000009714,1.83025000009711,1.83025000009714,"C-Const",6,0,0,0,0,0,1,0,0,0,9,9,1,0.00994721332863463,0.00114245597826293,0.0668751433885603,0.00809960188770387,0.000381831617987386,0.0360296580819895,0.0396892740704817,0.00448271777795498,0.833352103868425,0.833352103868425,9,1,0.00994721332863534,0.00114245597826294,0.0668751433885632,0.00809960188770399,0.000381831617987391,0.0360296580819921,0.0396892740704868,0.00448271777795505,0.833352103868413,0.833352103868413
65.31001,8.330756,-52.28398,386.6086,1.763969,-150.071,396.4307,"False",1,1,"Const",0,1,0,-0.685780892040305,23.4356695579589,"L",1,0,0,7,-149.94612142317,-149.321728539021,-149.654738077234,-150.343773424382,-151.707640546291,-150.980244747939,-150.175577449607,-150.69846469764,-150.419591498689,396.157926575618,394.794059453709,395.521455252061,396.30582142317,395.681428539022,396.014438077234,396.149517573391,394.743605440346,395.493425244636,13.9590765277592,12.6448106271714,13.3408775089744,14.0939000631914,13.5123811631172,13.8053015536578,13.9417618144479,12.5296714120836,13.2803876444173,98.1278936154604,97.3823720597865,97.7778273295098,98.5381103419506,99.8367692492227,99.143443883751,98.3554470244433,98.7501347432822,98.5369898253914,8.330756,0.466713286119233,0.466713286119261,0.466713286119235,1.10408304067564,1.10408304067564,1.10408304067566,0.318684877278208,0.318684877278189,0.318684877278199,"L-Const",4,0,0,0,0,0,1,0,0,0,10,10,1,0.000611871295795454,0.00117563248803696,0.00697017607206474,0.0202743946194752,0.0364677239247015,0.246226600444346,0.0263562745454646,0.0773295666509182,0.584587759959198,0.0263562745454646,10,1,0.000611871295795382,0.00117563248803716,0.00697017607206501,0.0202743946194742,0.0364677239247019,0.246226600444339,0.0263562745454636,0.0773295666509244,0.584587759959199,0.0263562745454636
66.42111,8.356065,-61.49086,387.7057,0.1044063,-150.0407,395.2739,"False",1,1,"Dec",0,0,1,0.605659668260951,21.9015912587791,"L",1,0,0,7,-149.823086239094,-148.735017434565,-149.315320796981,-150.247204845135,-151.279729070813,-150.729049483785,-150.032844810327,-149.993568861963,-150.014516034424,395.067395154865,394.034870929187,394.585550516215,395.056286239094,393.968217434565,394.548520796981,394.974002857641,393.474517145845,394.274242858803,12.8767174651072,11.9672108386695,12.4380538890663,12.8469057508109,11.7733998242353,12.3348679304128,12.7724215383179,11.2766808465482,12.0742777065524,88.6384608841313,87.4734326016653,88.093519951276,89.060203617143,90.0070004701514,89.5001601049044,88.8398069593952,88.6905221946947,88.7670177092198,8.356065,0.8545920643366,0.854592064336612,0.854592064336604,0.716204262458286,0.71620426245822,0.716204262458312,0.069193900939153,0.0691939009391674,0.069193900939145,"L-Dec",7,0,0,0,1,0,0,0,0,0,11,11,1,0.0850089282052629,0.0405477714148231,0.340217254013497,0.00652507390763546,0.00305602259085939,0.0266634144173874,0.206368332573799,0.0593847431985069,0.232228459678229,0.00652507390763546,11,1,0.0850089282052547,0.0405477714148304,0.340217254013493,0.00652507390763572,0.00305602259085964,0.0266634144173881,0.206368332573795,0.059384743198513,0.23222845967823,0.00652507390763572
67.53223,8.307084,-70.69297,388.6624,3.109962,-149.8334,393.2592,"True",1,1,"Acc",1,0,0,1.56003271619427,4.37430047983839,"C",0,1,0,7,-149.600669637661,-148.437017825968,-149.057632125538,-150.022705516152,-150.969233096915,-150.464418387175,-149.80269399679,-149.649163980739,-149.731046655966,393.069894483848,392.123366903085,392.628181612825,393.026469637661,391.862817825968,392.483432125538,392.960775568415,391.46865341049,392.264451894717,10.9017428168523,10.142967325627,10.5278756158416,10.8277147115567,9.65547734444889,10.2700631164664,10.7762120778924,9.3033482137493,10.0878804839788,79.0306970090264,77.8210464095076,78.4649456372102,79.4496824465967,80.3400341739152,79.862909190012,79.2264126625421,79.0060480351217,79.1201133677562,8.307084,0.95747081416708,0.957470814167158,0.957470814167076,0.613325512627807,0.613325512627812,0.613325512627799,0.172072650769628,0.172072650769616,0.172072650769623,"C-Acc",3,0,0,0,0,0,0,1,0,0,12,12,1,0.177021824371352,0.0592313130371271,0.716055197558864,0.000448169189047695,5.66492436535137e-05,0.000705881750494995,0.0103722734348779,0.00544482548003501,0.0306638659345472,0.716055197558864,12,1,0.177021824371335,0.0592313130371373,0.71605519755887,0.000448169189047714,5.66492436535202e-05,0.000705881750495032,0.0103722734348779,0.0054448254800356,0.0306638659345479,0.71605519755887
68.64333,8.330444,-79.88397,389.4888,3.571188,-149.6257,391.5202,"False",1,1,"Const",0,1,0,-0.469633794146255,0.936238378281498,"C",0,1,0,7,-149.389907509439,-148.210945056636,-148.839725031464,-149.811177495657,-150.738564973942,-150.243958318857,-149.590121925908,-149.41223155545,-149.507106419694,391.334722504343,390.407335026058,390.901941681143,391.284407509439,390.105445056636,390.734225031464,391.222317136035,389.732902816211,390.527257120117,9.2007049883629,8.53500525174515,8.86471650531591,9.10457896377805,7.8923145905378,8.52747431163322,9.06474969755004,7.61226664176978,8.384842358334,69.5304449788589,68.3331488150828,68.9702335893559,69.9502577155269,70.8572782432917,70.3710099383166,69.7277039488519,69.5286900574712,69.6308804921041,8.330444,1.0088754663124,1.00887546631237,1.00887546631238,0.561920860482509,0.561920860482511,0.561920860482521,0.223477302914938,0.223477302914902,0.223477302914927,"C-Const",6,0,0,1,0,0,0,0,0,0,13,13,1,0.00640434511700478,0.00178513371871609,0.0669230253209452,0.0644731893583361,0.0177299874314539,0.263745009078122,0.132197211023248,0.0579593568112366,0.388782742140938,0.388782742140938,13,1,0.00640434511700421,0.00178513371871635,0.0669230253209462,0.0644731893583368,0.0177299874314546,0.263745009078125,0.132197211023246,0.0579593568112434,0.388782742140927,0.388782742140927
69.75445,8.34393,-89.1283,390.1639,2.066297,-149.6853,389.4965,"False",1,1,"Const",0,1,0,-1.01414458976316,-8.49787176457518,"C",0,1,0,7,-149.479504697513,-148.450528185076,-148.999315658375,-149.903584890623,-150.995009343736,-150.412916302075,-149.694131472465,-149.738288834788,-149.714738241549,389.278215109377,388.186790656264,388.768883697925,389.290704697513,388.261728185076,388.810515658375,389.196630019685,387.69728011811,388.49693339895,7.15265435765076,6.34842406902036,6.74784475222021,7.11085546043088,6.06013979004055,6.59894528419476,7.04119515941884,5.55070064389482,6.34507356222722,60.3577032877043,59.3551658931158,59.8872656451144,60.7815574296401,61.8959447996053,61.2995582730314,60.5735548995254,60.660159579372,60.6093662435604,8.34393,0.881273907139049,0.881273907139114,0.881273907139075,0.689522419655837,0.689522419655917,0.689522419655841,0.0958757437416066,0.0958757437415706,0.0958757437416054,"C-Const",6,0,0,0,0,0,1,0,0,0,14,14,1,0.000596934146874092,0.000258393074923913,0.00229547422495889,0.0781516316091596,0.0333470867826812,0.317322842346412,0.0622197316741746,0.042309775687755,0.463498130453061,0.463498130453061,14,1,0.00059693414687402,0.000258393074923946,0.00229547422495888,0.0781516316091588,0.0333470867826819,0.31732284234641,0.0622197316741719,0.0423097756877592,0.463498130453061,0.463498130453061
70.86555,8.333445,-98.37488,390.6508,1.317522,-149.9048,387.0546,"False",1,1,"Const",0,1,0,-0.299124295224002,-3.44952624056012,"C",0,1,0,7,-149.712511592204,-148.751069553224,-149.26383864068,-150.135071944073,-151.286431664439,-150.672373146911,-149.931658416075,-150.06595049645,-149.994328053584,386.824328055927,385.672968335561,386.287026853089,386.862311592204,385.900869553224,386.41363864068,386.755804709733,385.261828258396,386.058615699109,4.69518839641247,3.92312655503723,4.28714984101964,4.67147597231888,3.74943783249088,4.1999165904227,4.59081276419337,3.09443508823229,3.89215616588052,51.4800379276826,50.6215298265652,51.0757146558962,51.8986523380261,53.124327184331,52.4688605349506,51.7036980201171,51.9712207428381,51.8233111061996,8.333445,0.838948461863337,0.838948461863321,0.83894846186334,0.73184786493156,0.731847864931588,0.731847864931575,0.0535502984658927,0.0535502984659176,0.0535502984658989,"C-Const",6,0,0,0,0,0,1,0,0,0,15,15,1,0.00624050878010783,0.00318463134590324,0.0235265980885433,0.0335026071605633,0.0165847954323036,0.135597411413594,0.0852026554714214,0.0676803506306044,0.628480441676959,0.628480441676959,15,1,0.00624050878010715,0.00318463134590372,0.0235265980885432,0.0335026071605617,0.0165847954323042,0.135597411413593,0.0852026554714157,0.0676803506306098,0.628480441676961,0.628480441676961
71.97667,8.260077,-107.5587,390.9833,1.401592,-150.0218,385.8442,"False",1,1,"Const",0,1,0,-0.471428583796608,-0.384729342568378,"C",0,1,0,7,-149.831062144174,-148.877372865046,-149.386007147248,-150.253357920087,-151.411147520522,-150.793659733623,-150.050664144248,-150.194984865486,-150.118013814159,385.612642079913,384.454852479478,385.072340266377,385.653462144174,384.699772865046,385.208407147248,385.545591793186,384.052550759114,384.848839310619,3.48484631980394,2.8278665343163,3.10624140436155,3.45685928882267,2.61364931777694,3.000190532127,3.37672157534237,1.88292259115878,2.67875308267528,42.61216455125,41.8312485393021,42.242905536465,43.026050091574,44.3003370957358,43.6189308744356,42.8384837194138,43.1959265691902,42.9991488320594,8.260077,0.847721705148765,0.847721705148769,0.847721705148752,0.723074621646142,0.723074621646201,0.723074621646145,0.0623235417513054,0.0623235417512947,0.0623235417513,"C-Const",6,0,0,0,0,0,1,0,0,0,16,16,1,0.00355172391082224,0.00178260544966995,0.013271927957807,0.0430902938675388,0.0207356401910504,0.17418989538933,0.0810900907526801,0.0629303992042147,0.599357423276887,0.599357423276887,16,1,0.00355172391082188,0.00178260544967027,0.0132719279578072,0.0430902938675383,0.0207356401910511,0.174189895389328,0.0810900907526752,0.0629303992042214,0.599357423276887,0.599357423276887
73.08778,8.191757,-116.6756,391.2531,0.2699102,-150.2215,384.5292,"False",1,1,"Dec",0,0,1,-0.0262206262206388,-3.11395047140819,"C",0,1,0,7,-150.043622448355,-149.154234690129,-149.62857482785,-150.463077268427,-151.670963610563,-151.026757561424,-150.266542501696,-150.491755010178,-150.371641672321,384.287622731573,383.079736389437,383.723942438576,384.351322448355,383.461934690129,383.93627482785,384.232600652326,382.749603913953,383.540535507752,2.14737860146042,1.68731499669159,1.79664691672206,2.14157872886912,1.64249184523624,1.77342102252923,2.04610346435451,0.546680044505083,1.34621267740696,34.0872820226385,33.4912762379302,33.8021709892965,34.4851874510909,35.8521649432954,35.12175901645,34.3167426957012,34.8689229165137,34.5674250621865,8.191757,0.797894221735747,0.797894221735728,0.797894221735732,0.772902105059159,0.772902105059168,0.772902105059142,0.0124960583382914,0.0124960583383181,0.0124960583382736,"C-Dec",9,0,0,0,0,0,1,0,0,0,17,17,1,0.0130920007915136,0.00820192988060227,0.0484521878144475,0.022561771015771,0.0129865322234173,0.0910947768357302,0.0859568456524038,0.0812906850433247,0.63636327074279,0.0910947768357302,17,1,0.0130920007915128,0.00820192988060358,0.0484521878144513,0.0225617710157702,0.0129865322234175,0.0910947768357291,0.0859568456524018,0.081290685043333,0.636363270742781,0.0910947768357291
74.19889,7.733916,-125.2563,391.2776,1.343324,-150.3655,383.4586,"False",1,1,"Acc",1,0,0,0.47814562785988,0.974599947581632,"C",0,1,0,7,-150.183539155364,-149.273734932184,-149.758963851213,-150.604016773036,-151.796600638214,-151.160555910119,-150.405491080488,-150.605446482926,-150.498803601626,383.220083226964,382.027499361786,382.663544089881,383.276639155364,382.366834932184,382.852063851213,383.161277425207,381.674664551243,382.467524750691,1.08963099869574,1.34202929547465,0.955882284103206,1.06233997143608,1.20360526729677,0.847316910234411,0.967293958312178,0.53964243784514,0.273710131265692,26.1971530601412,25.7371626745993,25.9727259837741,26.5804838188366,27.996237105379,27.2400465060441,26.4264357063335,27.1071133956726,26.7357703082702,7.733916,0.840065794193599,0.840065794193586,0.840065794193628,0.730730532601288,0.730730532601329,0.730730532601286,0.0546676307961568,0.0546676307961425,0.0546676307961466,"C-Acc",3,0,0,0,0,0,0,0,0,1,18,18,1,0.0668346463624041,0.0377476188834804,0.249922168922164,0.012107544998982,0.00606115191125776,0.127032804062167,0.104500360136933,0.0872370249724834,0.308556679750128,0.249922168922164,18,1,0.0668346463623985,0.0377476188834856,0.249922168922171,0.0121075449989812,0.00606115191125765,0.127032804062161,0.104500360136927,0.0872370249724894,0.308556679750129,0.249922168922171
75.31001,9.540255,-135.4182,391.0132,1.33245,-151.0021,382.7025,"False",1,1,"Const",0,1,0,0.0308293619086876,-32.4352365955436,"R",0,0,1,7,-150.976452873642,-150.848217241849,-150.916609578805,-151.301001697736,-152.795510186417,-151.998438992454,-151.195320160411,-152.161420962468,-151.646167201371,382.403598302264,380.909089813583,381.706161007546,382.676852873642,382.548617241849,382.617009578805,382.473009325657,381.325555953939,381.937531085522,0.418957107345474,1.32810103033302,0.597280888123482,0.837603976814361,2.21814889758358,1.45267420295033,0.646629082015094,1.79429011540665,1.079548439098,17.7815768106722,18.4439278556118,18.0782099301743,17.9376161510039,19.3292542687123,18.5849492502899,17.9402446279364,19.3438852188801,18.5934043610632,9.540255,0.60008999071462,0.600089990714649,0.600089990714633,2.17088631750952,2.17088631750955,2.17088631750953,1.38548815411207,1.38548815411207,1.38548815411208,"R-Const",5,0,0,1,0,0,0,0,0,0,19,19,1,0.00118278455721249,0.0222743654606785,0.216561982057803,0.00262118443375779,0.0264341202588273,0.164710820589375,0.00865070939355224,0.184857686143169,0.372706347105624,0.184857686143169,19,1,0.00118278455721252,0.0222743654606805,0.216561982057821,0.00262118443375749,0.0264341202588252,0.164710820589359,0.00865070939355177,0.184857686143171,0.372706347105621,0.184857686143171
76.42111,10.38042,-146.7365,390.6889,1.411832,-152.3913,382.3356,"False",1,1,"Const",0,1,0,-0.0235783131520221,-35.1097193899776,"R",0,0,1,6,-152.542230840046,-153.296885040278,-152.894402800154,-152.65056797242,-153.946907834522,-153.255526574734,-152.68135436193,-154.131626171579,-153.358147873099,382.07633202758,380.779992165478,381.471373425266,382.486530840046,383.241185040278,382.838702800154,382.258994079044,381.875964474264,382.080246930147,20.2089299183244,19.3892638440062,19.8165110525498,20.1390281350621,18.9478544194044,19.5778649559329,20.0862321897067,18.6085680057028,19.3962288623168,600,600,600,600,600,600,600,600,600,0,0.94920704165055,0.949207041650547,0.949207041650566,0.621589285144334,0.62158928514435,0.62158928514433,0.1638088782531,0.163808878253067,0.163808878253121,"R-Const",5,0,0,0,0,1,0,0,0,0,20,20,1,0.00916858286592398,0.00930832721101348,0.0617313494598783,0.0203108798421502,0.00821939256809884,0.0904483483172528,0.0687156542429744,0.175805173017695,0.556292292475013,0.175805173017695,20,1,0.00916858286592487,0.00930832721101281,0.0617313494598773,0.0203108798421487,0.00821939256809871,0.0904483483172462,0.0687156542429734,0.175805173017682,0.556292292475036,0.175805173017682
77.53223,11.44438,-159.1313,390.1801,1.28005,-153.8574,382.2078,"False",1,1,"Const",0,1,0,0.0363475254292015,-9.81262464053492,"C",0,1,0,6,-154.050308942311,-155.014853653864,-154.500429807702,-154.087152344877,-155.235914069263,-154.623241149591,-154.156266662316,-155.650599973894,-154.853622207719,381.978047655123,380.829285930737,381.441958850409,382.400708942311,383.365253653864,382.850829807702,382.181747780203,382.05148668122,382.120959267344,18.6978956905733,17.6727193106597,18.2112885886347,18.7013425475295,17.6945886298671,18.2230823812399,18.610550875012,17.1106052355975,17.9105751101977,600,600,600,600,600,600,600,600,600,0,0.77736437319512,0.777364373195184,0.777364373195146,0.793431953599777,0.793431953599773,0.793431953599769,0.0080337902023346,0.008033790202376,0.0080337902023484,"C-Const",6,0,0,0,0,1,0,0,0,0,21,21,1,0.00918098439384715,0.017019404030136,0.0638410751079715,0.0155487209026941,0.0113962340018982,0.0712385743825853,0.0580064214086889,0.269780724723508,0.483987861048671,0.483987861048671,21,1,0.00918098439384804,0.0170194040301357,0.0638410751079704,0.0155487209026948,0.0113962340018986,0.0712385743825881,0.0580064214086979,0.269780724723503,0.483987861048663,0.483987861048663
78.64333,12.54916,-172.7343,389.2686,1.492598,-155.0639,382.0149,"False",1,1,"Const",0,1,0,0.0055464490524894,4.10191170340005,"C",0,1,0,6,-155.239880434485,-156.119782606911,-155.650501448284,-155.306862726932,-156.521676361594,-155.873775756441,-155.36013755037,-156.84132530222,-156.051358501234,381.771937273068,380.557123638406,381.205024243559,382.190880434485,383.070782606911,382.601501448284,381.967536366791,381.730718200747,381.857021222637,17.495574679339,16.5635331726649,17.0505434615565,17.4664237604704,16.3778992817132,16.9506278468108,17.3920589072269,15.89597776781,16.693800183746,600,600,600,600,600,600,600,600,600,0,0.853342828300231,0.853342828300212,0.853342828300219,0.717453498494657,0.717453498494685,0.717453498494678,0.0679446649027872,0.0679446649027251,0.0679446649028003,"C-Const",6,0,0,0,0,0,1,0,0,0,22,22,1,0.00547586211721396,0.00777804153631742,0.0369556036627233,0.0106490953638566,0.00600240712926203,0.0474414845667526,0.0377755868073484,0.0518894315581735,0.796032487258352,0.796032487258352,22,1,0.00547586211721459,0.00777804153631698,0.0369556036627233,0.0106490953638566,0.00600240712926203,0.0474414845667499,0.0377755868073506,0.0518894315581735,0.796032487258352,0.796032487258352
79.75445,13.56924,-187.4042,387.4197,1.292368,-156.6619,381.6616,"False",1,1,"Const",0,1,0,-0.0546205941115818,3.38311765580358,"C",0,1,0,6,-156.823235972169,-157.629915833015,-157.199686573897,-156.914824305048,-158.17944583029,-157.504981016828,-156.954826251197,-158.419457507181,-157.638320837323,381.408675694952,380.14405416971,380.818518983172,381.822935972169,382.629615833015,382.199386573897,381.596837268744,381.273023612461,381.445724229145,15.8906067307944,15.0552098619255,15.4882890513843,15.8306714713412,14.6714691067802,15.282332531667,15.7722670231727,14.28906899177,15.0796943049542,600,600,600,600,600,600,600,600,600,0,0.925288519531194,0.925288519531138,0.92528851953119,0.645507807263716,0.645507807263679,0.645507807263707,0.139890356133751,0.139890356133729,0.139890356133722,"C-Const",6,0,0,0,0,0,1,0,0,0,23,23,1,0.00468536353599046,0.0051718608003158,0.0315557577382727,0.0119587846425142,0.00525654394577941,0.0532596614066272,0.0384141110094132,0.0410844727353976,0.808613444185689,0.808613444185689,23,1,0.00468536353599075,0.00517186080031553,0.0315557577382711,0.0119587846425142,0.00525654394577914,0.0532596614066245,0.0384141110094156,0.0410844727353955,0.808613444185694,0.808613444185694
80.86555,14.76906,-203.1249,384.1126,1.371214,-158.2008,381.4316,"False",1,1,"Const",0,1,0,0.0870945967072157,-3.96655305174377,"C",0,1,0,6,-158.379245325562,-159.27147195337,-158.795617751872,-158.441958175862,-159.647749055173,-159.004660586207,-158.497504481266,-159.981026887599,-159.189814937555,381.190441824138,379.984650944827,380.627739413793,381.610045325562,382.50227195337,382.026417751872,381.387255318285,381.16553190971,381.283784394283,14.3244969110572,13.4181085116095,13.8887223944331,14.2908549284271,13.201120142325,13.7727152679189,14.2185236208292,12.723869271431,13.5208709194437,600,600,600,600,600,600,600,600,600,0,0.863626309342475,0.86362630934245,0.863626309342476,0.707170017452422,0.707170017452371,0.707170017452427,0.0782281459450219,0.0782281459451086,0.0782281459450588,"C-Const",6,0,0,0,0,0,1,0,0,0,24,24,1,0.00691436690072802,0.00947304000074547,0.0466378642222722,0.0092714699573508,0.00504340348654777,0.0413020779938659,0.0376759321033027,0.0499331619822087,0.793748683352978,0.793748683352978,24,1,0.0069143669007284,0.00947304000074491,0.0466378642222694,0.00927146995735078,0.00504340348654776,0.0413020779938658,0.0376759321033048,0.0499331619822115,0.793748683352977,0.793748683352977
81.97667,15.25586,-219.3216,379.3576,1.485912,-159.6723,381.2401,"False",1,1,"Const",0,1,0,0.0142645994125319,-1.08559744959794,"C",0,1,0,6,-159.855282306559,-160.770193839355,-160.282241021864,-159.9100340436,-161.098704261599,-160.464746811999,-159.969791384153,-161.45724830492,-160.663937947178,381.0023659564,379.813695738401,380.447653188001,381.423082306559,382.337993839354,381.850041021864,381.201384675457,381.00780805274,381.111048918189,12.8408903994652,11.9276371719829,12.400503832651,12.8124407267238,11.7426383430158,12.3020214755965,12.7372504003496,11.2411306178352,12.0389409973366,600,600,600,600,600,600,600,600,600,0,0.85142289646906,0.851422896469079,0.851422896469045,0.719373430325815,0.719373430325893,0.719373430325834,0.066024733071618,0.0660247330716802,0.0660247330716247,"C-Const",6,0,0,0,0,0,1,0,0,0,25,25,1,0.0056131786581607,0.00802614477480403,0.0378673662961323,0.0104872596043482,0.00595053098412946,0.0467203888511543,0.0377487861119108,0.0521985308864676,0.795387813832892,0.795387813832892,25,1,0.005613178658161,0.00802614477480356,0.0378673662961322,0.0104872596043481,0.00595053098412944,0.0467203888511542,0.0377487861119107,0.0521985308864704,0.79538781383289,0.79538781383289
83.08778,15.14232,-234.8534,372.8209,1.402915,-161.0785,381.0671,"False",1,1,"Const",0,1,0,-0.107163557163556,-0.40110016180865,"C",0,1,0,6,-161.263142070813,-162.186352424876,-161.693973569376,-161.314947257726,-162.497183546354,-161.866657525752,-161.376255119695,-162.865030718169,-162.071017065649,380.830652742274,379.648416453646,380.278942474248,381.251742070813,382.174952424876,381.682573569376,381.030468201033,380.847309206199,380.944994003444,11.4271454398754,10.5242524686739,10.9895600561116,11.3985574364238,10.3365682113895,10.8901465854003,11.3232221157825,9.82721359796701,10.6249447445379,600,600,600,600,600,600,600,600,600,0,0.851613382331898,0.851613382331929,0.851613382331918,0.719182944462987,0.719182944463042,0.719182944462996,0.0662152189344542,0.066215218934513,0.0662152189344274,"C-Const",6,0,0,0,0,0,1,0,0,0,26,26,1,0.00395794742073938,0.00565533880972765,0.0266950604522062,0.0128501856874224,0.00728646105367533,0.0572468069923374,0.0377939421407535,0.0522256493988792,0.796288608044259,0.796288608044259,26,1,0.00395794742073937,0.00565533880972732,0.0266950604522047,0.0128501856874231,0.00728646105367532,0.0572468069923373,0.0377939421407556,0.0522256493988791,0.796288608044258,0.796288608044258
84.19889,14.96746,-249.7771,365.4323,1.247771,-162.5273,380.7402,"False",1,1,"Const",0,1,0,-0.0107588221875972,5.7013476680583,"C",0,1,0,6,-162.68753927312,-163.48873563872,-163.0614309104,-162.780920534165,-164.049023204988,-163.372701780549,-162.819943076192,-164.283158457149,-163.502776920639,380.486579465835,379.218476795012,379.894798219451,380.90043927312,381.70163563872,381.2743309104,380.67416947708,380.344016862478,380.520098256932,9.99542206599323,9.27140624792521,9.63528416781162,9.91370606700183,8.7291241283105,9.34963742682192,9.86617992351897,8.39983558467029,9.18053271951922,600,600,600,600,600,600,600,600,600,0,0.975236641957184,0.97523664195711,0.975236641957155,0.595559684837725,0.595559684837655,0.595559684837702,0.189838478559729,0.189838478559717,0.189838478559728,"C-Const",6,0,0,0,0,0,1,0,0,0,27,27,1,0.00537155821071169,0.00497489218013559,0.0360978361231679,0.0112025018089508,0.00414329827654718,0.0498801419767448,0.0387434756432033,0.0348240427070556,0.814762253073483,0.814762253073483,27,1,0.005371558210712,0.00497489218013532,0.0360978361231679,0.0112025018089509,0.00414329827654718,0.0498801419767449,0.0387434756432034,0.0348240427070537,0.814762253073485,0.814762253073485
85.31001,14.86535,-264.2038,357.3838,1.379009,-163.9759,380.4031,"False",1,1,"Const",0,1,0,0.0919647712962991,0.38499934537363,"C",0,1,0,6,-164.134431463665,-164.92708878199,-164.504338212217,-164.230591529165,-165.504049174988,-164.824871763882,-164.268092780372,-165.729056682232,-164.949875934573,380.148408470835,378.874950825012,379.554128236118,380.561631463665,381.35428878199,380.931538212216,380.335104565606,379.995127393635,380.176448552019,8.55240277785006,7.90690212709519,8.22347231984499,8.45339246474171,7.23993139316328,7.87483332880806,8.41497989168389,6.96626593410438,7.73648119871989,600,600,600,600,600,600,600,600,600,0,1.01532278989637,1.01532278989642,1.01532278989637,0.555473536898525,0.555473536898562,0.555473536898507,0.229924626498931,0.229924626498847,0.22992462649895,"C-Const",6,0,0,0,0,0,1,0,0,0,28,28,1,0.00723905666408169,0.00582394860333882,0.0485777751716705,0.00944250841438502,0.00304048559407124,0.0420364449101599,0.0387694466555883,0.0303096490998023,0.814760684886902,0.814760684886902,28,1,0.0072390566640821,0.00582394860333849,0.0485777751716678,0.00944250841438556,0.00304048559407125,0.0420364449101599,0.0387694466555883,0.030309649099804,0.814760684886903,0.814760684886903
86.42111,14.964,-277.9324,348.1191,1.452138,-165.4953,380.4034,"False",1,1,"Const",0,1,0,-0.0242021038480038,-13.1113211107086,"R",0,0,1,6,-165.707473914918,-166.76834348951,-166.202546383061,-165.707390145524,-166.767840873142,-166.202267151746,-165.795299994152,-167.295299964913,-166.495299980507,380.191309854476,379.130859126858,379.696432848254,380.615573914918,381.67644348951,381.110646383061,380.403459233907,380.403755403442,380.403597446357,6.97878954712104,6.05201069133495,6.51979479329563,6.97821314913647,6.04802155077888,6.51773796542457,6.88740853752422,5.38741035438805,6.18740927576888,600,600,600,600,600,600,600,600,600,0,0.786717258715845,0.78671725871589,0.786717258715856,0.78407906807904,0.784079068079007,0.78407906807904,0.001319095318416,0.001319095318416,0.0013190953183318,"R-Const",5,0,0,0,0,0,1,0,0,0,29,29,1,0.00494481466221275,0.00887089428183242,0.0333737160699626,0.0110098026199949,0.00781279051338431,0.04906083568865,0.0371580557497768,0.0643519642002356,0.783417126213951,0.0643519642002356,29,1,0.00494481466221298,0.00887089428183234,0.0333737160699623,0.0110098026199954,0.00781279051338468,0.0490608356886495,0.0371580557497807,0.0643519642002387,0.783417126213943,0.0643519642002387
87.53223,15.09592,-290.5467,337.1247,1.325223,-167.0276,380.5948,"False",1,1,"Const",0,1,0,-0.0806916771407455,-7.10864114690174,"C",0,1,0,6,-167.264389390903,-168.448336345415,-167.816897969675,-167.21180310626,-168.132818637563,-167.641610354202,-167.325286649573,-168.813719897436,-168.019888831909,380.41059689374,379.489581362437,379.980789645798,380.831589390903,382.015536345415,381.384097969675,380.631984118468,380.817904710807,380.718747061559,5.41831187452827,4.33415967840654,4.88507529374052,5.48678806385746,4.82341976673516,5.1335263629363,5.36183403163233,3.88997478097529,4.67273966775048,600,600,600,600,600,600,600,600,600,0,0.629224264435727,0.629224264435748,0.629224264435723,0.941572062359179,0.941572062359165,0.941572062359174,0.156173898961725,0.156173898961691,0.156173898961751,"C-Const",6,0,0,0,0,1,0,0,0,0,30,30,1,0.00407226640117897,0.0127035612271002,0.047306161986645,0.0117646214183533,0.0143891898893136,0.0898836996227535,0.0360873919578939,0.281083760685614,0.502709346811148,0.502709346811148,30,1,0.00407226640117885,0.0127035612270991,0.0473061619866437,0.0117646214183537,0.0143891898893132,0.089883699622751,0.0360873919578928,0.281083760685606,0.502709346811162,0.502709346811162
88.64333,14.97679,-300.9647,326.3301,1.272822,-168.3595,380.5909,"False",1,1,"Const",0,1,0,0.0924266798191411,7.28772401877125,"C",0,1,0,6,-168.571009973668,-169.628559842011,-169.064533245562,-168.572252276225,-169.636013657348,-169.068674254082,-168.659498713901,-170.159492283405,-169.359495713003,380.378147723775,379.314386342652,379.881725745918,380.802409973668,381.859959842011,381.295933245562,380.590021559438,380.585629356629,380.587971864794,4.11184895876668,3.24616422231893,3.65715271748875,4.12872980970552,3.37227372099377,3.72000796663612,4.0270369572331,2.5290177795987,3.32773927009566,600,600,600,600,600,600,600,600,600,0,0.747499630617785,0.747499630617774,0.747499630617807,0.823296696177112,0.823296696177123,0.82329669617709,0.0378985327796688,0.0378985327796014,0.0378985327796483,"C-Const",6,0,0,0,0,0,1,0,0,0,31,31,1,0.00607846508190086,0.012517215338723,0.0466999503330641,0.00794839355058061,0.00645925898812493,0.0403680595125211,0.0325744326412316,0.064668379047371,0.782685845506483,0.782685845506483,31,1,0.00607846508190119,0.0125172153387229,0.046699950333064,0.00794839355058059,0.00645925898812492,0.0403680595125211,0.0325744326412334,0.0646683790473708,0.782685845506481,0.782685845506481
89.75445,14.97679,-300.9647,326.3301,1.530621,-169.8381,380.5015,"False",1,1,"Const",0,1,0,0.0363002634263204,3.29226953918497,"C",0,1,0,6,-170.037042671857,-171.031756031143,-170.501242239524,-170.062648020063,-171.18538812038,-170.586593400211,-170.137553140026,-171.634818840158,-170.836277133421,380.276951979937,379.15421187962,379.753006599789,380.700442671857,381.695156031143,381.164642239524,380.483394284649,380.392865707893,380.441147615496,2.64922010723374,2.07688181161777,2.27948830264709,2.63563085545525,1.97041494040377,2.22635943955427,2.54608455456709,1.04810035494232,1.84661804298655,600,600,600,600,600,600,600,600,600,0,0.81514226918505,0.815142269185073,0.815142269185059,0.755654057609858,0.755654057609894,0.755654057609838,0.0297441057875902,0.0297441057875566,0.0297441057876088,"C-Const",6,0,0,0,0,0,1,0,0,0,32,32,1,0.00596338910921831,0.00967884268221272,0.0399439333799938,0.010006738405857,0.00643638480386293,0.0445801518356163,0.0374194886315747,0.0586928148207294,0.787278256330935,0.787278256330935,32,1,0.00596338910921897,0.00967884268221269,0.0399439333799936,0.010006738405857,0.00643638480386291,0.0445801518356162,0.0374194886315767,0.0586928148207293,0.787278256330933,0.787278256330933
90.86555,14.97679,-300.9647,326.3301,1.353497,-171.4015,380.2497,"False",1,1,"Const",0,1,0,-0.096744474791576,5.68940208875358,"C",0,1,0,6,-171.577201941286,-172.455711647713,-171.987173137618,-171.644664199315,-172.86048519589,-172.21204733105,-171.697683088428,-173.178598530568,-172.388776961427,380.006535800685,378.79071480411,379.43915266895,380.425401941286,381.303911647713,380.835373137618,380.201996979873,379.963481879239,380.090689932911,1.1783028473463,1.6393756739645,1.19777708007296,1.03809516741199,0.90720254608586,0.631519217453994,1.00763628777338,0.670188279982572,0.437166133324126,600,600,600,600,600,600,600,600,600,0,1.07285943573908,1.072859435739,1.07285943573909,0.497936891055822,0.497936891055762,0.497936891055808,0.287461272341645,0.287461272341712,0.287461272341649,"C-Const",6,0,0,0,0,0,1,0,0,0,33,33,1,0.00433944066971057,0.00285911891048765,0.0291025423813981,0.0130594669037449,0.00344557126960729,0.0580982564699566,0.039455319870697,0.0251814063117249,0.824458877212673,0.824458877212673,33,1,0.0043394406697108,0.00285911891048764,0.029102542381398,0.0130594669037448,0.00344557126960728,0.0580982564699564,0.0394553198706991,0.0251814063117248,0.824458877212671,0.824458877212671
91.97667,14.97679,-300.9647,326.3301,1.315636,-172.777,379.9337,"False",1,1,"Const",0,1,0,0.0154277415222204,3.78888200038863,"C",0,1,0,6,-172.936249552858,-173.732497317149,-173.307831842861,-173.031243151165,-174.302458906992,-173.624477170551,-173.069383494986,-174.531300969917,-173.751611649954,379.679456848835,378.408241093008,379.086222829449,380.092949552858,380.889197317149,380.464531842861,379.866529382468,379.530676294806,379.709797941559,0.777355666711977,2.26414371129903,1.46784835453028,0.474076405342532,1.6879414618448,0.943115834353466,0.670504865550159,2.04893054991095,1.28019344856733,600,600,600,600,600,600,600,600,600,0,2.77576247822717,2.77576247822718,2.77576247822717,1.20496615143227,1.20496615143231,1.20496615143225,1.99036431482971,1.9903643148297,1.9903643148297,"C-Const",6,0,0,0,0,0,1,0,0,0,34,34,1,0.00613604794128353,0.00072872292537431,0.0418033913293693,0.0108471352587568,0.000512433877956619,0.0483203886531233,0.0400529267524525,0.00459671775592112,0.847002235505762,0.847002235505762,34,1,0.00613604794128402,0.000728722925374285,0.0418033913293691,0.010847135258757,0.000512433877956602,0.0483203886531244,0.0400529267524557,0.00459671775592096,0.847002235505758,0.847002235505758
93.08778,14.97679,-300.9647,326.3301,1.38778,-174.2741,379.6453,"False",1,1,"Const",0,1,0,0.0105331605331612,-2.03448652614192,"C",0,1,0,5,-174.44227506129,-175.283150367739,-174.834683537633,-174.522529363724,-175.764676182342,-175.102197879079,-174.568683813999,-176.041602883996,-175.256046046665,379.396870636276,378.154723817658,378.817202120921,379.81347506129,380.654350367739,380.205883537633,379.58855163853,379.304809831177,379.456138795099,25.4727010852618,24.4756644174286,25.001166699916,25.4609194505766,24.4020011640955,24.9611310906078,25.3780934712802,23.8787125830142,24.6783730261292,600,600,600,600,600,600,600,600,600,0,0.812942856839438,0.81294285683943,0.812942856839432,0.757853469955458,0.757853469955467,0.757853469955441,0.0275446934419922,0.0275446934420244,0.0275446934420043,"C-Const",6,0,0,0,0,0,1,0,0,0,35,35,1,0.00549185949125212,0.00898751729779311,0.0371181545564943,0.0104546286416211,0.00677590802676055,0.0465837889399068,0.0373741199954536,0.0590839701270764,0.788130052923642,0.788130052923642,35,1,0.00549185949125218,0.00898751729779218,0.0371181545564926,0.0104546286416206,0.00677590802676024,0.0465837889399046,0.037374119995454,0.0590839701270736,0.78813005292365,0.78813005292365
94.19889,14.97679,-300.9647,326.3301,1.339043,-175.7413,379.3329,"False",1,1,"Const",0,1,0,-0.0779857699465884,1.1162257976263,"C",0,1,0,5,-175.904603598776,-176.721121592655,-176.285645329253,-175.992958368879,-177.251250213274,-176.580161229597,-176.034722421263,-177.50183452758,-176.719374737544,379.081241631121,377.822949786726,378.494038770403,379.496203598776,380.312721592655,379.877245329253,379.27042374291,378.958042457459,379.1246458097,23.9794041641453,23.010728906416,23.5204168134431,23.9580375908958,22.8768024785081,23.4477250682434,23.8800284694143,22.3820744927771,23.1809503512429,600,600,600,600,600,600,600,600,600,0,0.8353410953796,0.835341095379552,0.835341095379597,0.735455231415292,0.735455231415213,0.735455231415324,0.0499429319821388,0.0499429319822367,0.0499429319821411,"C-Const",6,0,0,0,0,0,1,0,0,0,36,36,1,0.00428574171504628,0.00648432790145808,0.0289471595500653,0.0122003539289709,0.00731827549550559,0.0543569979799068,0.0376510972041591,0.0550611026947306,0.793694943530157,0.793694943530157,36,1,0.0042857417150465,0.00648432790145804,0.0289471595500651,0.0122003539289715,0.00731827549550637,0.0543569979799096,0.037651097204161,0.0550611026947302,0.793694943530152,0.793694943530152
95.31001,14.97679,-300.9647,326.3301,1.214477,-177.019,379.1227,"False",1,1,"Const",0,1,0,0.0311507097933354,-2.67776750690054,"C",0,1,0,5,-177.193882473079,-178.068294838472,-177.601941576929,-177.262754221727,-178.481525330364,-177.831514072424,-177.315020845751,-178.795125074505,-178.005736152503,378.878945778273,377.660174669636,378.310185927576,379.297582473079,380.171994838472,379.705641576929,379.074000319498,378.830501916991,378.960367731662,22.67436877325,21.6540025016628,22.1914199102819,22.6729177546962,21.6448845184567,22.1864775284572,22.5847834625361,21.0847929334833,21.8847877207467,600,600,600,600,600,600,600,600,600,0,0.788786699204783,0.788786699204763,0.78878669920479,0.782009627590126,0.782009627590133,0.782009627590129,0.0033885358072822,0.0033885358073149,0.0033885358072494,"C-Const",6,0,0,0,0,0,1,0,0,0,37,37,1,0.00578173941468597,0.0102974809180215,0.0390999874751718,0.010025249753863,0.00706342692625148,0.0446752370266601,0.0370812269364388,0.0637585344192553,0.782217117129652,0.782217117129652,37,1,0.00578173941468601,0.0102974809180216,0.0390999874751698,0.0100252497538631,0.00706342692625113,0.0446752370266603,0.037081226936439,0.0637585344192521,0.782217117129657,0.782217117129657
96.42111,14.97679,-300.9647,326.3301,1.408261,-178.4415,378.8495,"False",1,1,"Const",0,1,0,0.108641192442577,1.52933758214682,"C",0,1,0,5,-178.609814668926,-179.451388013555,-179.002548896419,-178.689834798658,-179.931508791947,-179.269282662193,-178.736115663906,-180.209193983437,-179.42355221302,378.601165201342,377.359491208053,378.021717337807,379.017814668926,379.859388013555,379.410548896419,378.792917223635,378.51000334181,378.66089074545,21.232899964762,20.2483293898916,20.7657606472443,21.2191426346365,20.1616140845493,20.7188334463317,21.1371408065181,19.637997007013,20.4375247309596,600,600,600,600,600,600,600,600,600,0,0.81751091091998,0.817510910920041,0.817510910919997,0.753285415874908,0.753285415874909,0.753285415874924,0.032112747522545,0.0321127475225346,0.032112747522545,"C-Const",6,0,0,0,0,0,1,0,0,0,38,38,1,0.00724893360192834,0.0116744588844349,0.0489801316936915,0.00882627609629385,0.00563091522196893,0.0393272231432319,0.0371518328464981,0.0578065464778932,0.783353682034059,0.783353682034059,38,1,0.0072489336019291,0.0116744588844354,0.0489801316936938,0.00882627609629426,0.00563091522196952,0.0393272231432315,0.037151832846502,0.0578065464778926,0.783353682034052,0.783353682034052
97.53223,14.97679,-300.9647,326.3301,1.455899,-179.9524,378.5872,"False",1,1,"Const",0,1,0,0.0075557718359604,-1.02295082440782,"C",0,1,0,5,-180.125121342795,-180.988728056771,-180.528137809317,-180.197690313186,-181.424141879118,-180.770034377288,-180.24797887656,-181.725873259357,-180.937662921865,378.341909686814,377.115458120882,377.769565622712,378.759921342795,379.623528056771,379.162937809317,378.535885988933,378.279315933596,378.416153296442,19.6959806824366,18.6952669881309,19.2208988597408,19.6893955295851,18.6536016742792,19.1983963887999,19.6036884599932,18.1038859065902,18.903776702595,600,600,600,600,600,600,600,600,600,0,0.800755605973208,0.800755605973198,0.800755605973189,0.770040720821689,0.770040720821644,0.770040720821692,0.0153574425757667,0.0153574425757956,0.015357442575745,"C-Const",6,0,0,0,0,0,1,0,0,0,39,39,1,0.00542734638136406,0.00926925677260079,0.0366863858377275,0.0104736178587937,0.00708027356397588,0.0466706536557641,0.0372542032163861,0.0614440844567283,0.785694178256659,0.785694178256659,39,1,0.00542734638136438,0.00926925677260028,0.0366863858377276,0.0104736178587932,0.0070802735639763,0.0466706536557616,0.0372542032163905,0.061444084456725,0.785694178256661,0.785694178256661
98.64333,14.97679,-300.9647,326.3301,1.425053,-181.3709,378.3726,"False",1,1,"Const",0,1,0,-0.0073565246525835,-1.24583725391686,"C",0,1,0,5,-181.548913676067,-182.438982056403,-181.964278920224,-181.612376978474,-182.819761870846,-182.175823261581,-181.667524686471,-183.150648118824,-182.359648954902,378.131123021526,376.923738129154,377.567676738419,378.550613676067,379.440682056403,378.965978920224,378.327724668511,378.103348011068,378.223015561705,18.2566713412928,17.2339365826238,17.7709657937681,18.2596250903271,17.2527021067955,17.7810786650964,18.1690500819058,16.6690900958277,17.469067899939,600,600,600,600,600,600,600,600,600,0,0.778515554239208,0.778515554239189,0.778515554239223,0.79228077255568,0.792280772555707,0.792280772555691,0.006882609158248,0.0068826091581512,0.0068826091582318,"C-Const",6,0,0,0,0,0,1,0,0,0,40,40,1,0.00506149676987193,0.00934506566773119,0.0350543213313391,0.0104585419866043,0.00763501268145187,0.0477271592708372,0.0362807892326714,0.0646510727687061,0.783786540290787,0.783786540290787,40,1,0.00506149676987198,0.00934506566773075,0.0350543213313374,0.0104585419866044,0.00763501268145151,0.0477271592708349,0.0362807892326717,0.0646510727687031,0.783786540290794,0.783786540290794
99.75445,14.97679,-300.9647,326.3301,1.439552,-182.6663,378.1061,"False",1,1,"Const",0,1,0,0.0130489956080351,3.02230249227472,"C",0,1,0,5,-182.831334280392,-183.656505682351,-183.216414267973,-182.916826817518,-184.169460905106,-183.501389391726,-182.960146070329,-184.429376421975,-183.645786901097,377.855573182482,376.602939094894,377.271010608274,378.271134280392,379.096305682351,378.656214267973,378.045647647258,377.743385883545,377.904592157525,16.94807280847,15.9953584057126,16.4933477682367,16.9268610980269,15.8600195079133,16.4205776280757,16.8483843187027,15.3504652667025,16.1493073546728,600,600,600,600,600,600,600,600,600,0,0.83480087624154,0.834800876241514,0.834800876241548,0.735995450553357,0.735995450553304,0.735995450553341,0.0494027128440864,0.0494027128441606,0.0494027128440774,"C-Const",6,0,0,0,0,0,1,0,0,0,41,41,1,0.00556715015733611,0.00843855268786152,0.037589442926894,0.0104675908343328,0.00629061793616822,0.0466366063856967,0.0375906136484161,0.0550750395414439,0.792344385881851,0.792344385881851,41,1,0.00556715015733619,0.00843855268786116,0.0375894429268924,0.0104675908343324,0.00629061793616759,0.0466366063856947,0.0375906136484146,0.0550750395414385,0.792344385881863,0.792344385881863
100.8189,15.72982,-326.2809,289.1064,1.469732,-184.0376,377.8217,"False",1,2,"Const",0,1,0,0.0164863648636485,0,"C",0,1,0,5,-184.321205747192,-185.739234483151,-184.98295249064,-183.939784969663,-183.45070981798,-183.711549898878,-184.16897387577,-184.825843254619,-184.475512919233,377.919515030337,378.40859018202,378.147750101122,378.105305747192,379.523334483151,378.76705249064,378.091405218276,379.439931309655,378.720717394253,15.4841876999616,14.1783115537729,14.8702212030893,15.890561244807,16.6590433758899,16.2364724756707,15.662237203522,15.3068008240238,15.4793032875503,600,600,600,600,600,600,600,600,600,0,0.481083535416407,0.481083535416482,0.481083535416412,2.05187986221131,2.05187986221126,2.05187986221132,1.26648169881387,1.26648169881384,1.26648169881385,"C-Const",6,0,0,0,0,0,0,0,0,0,42,42,1,0.000768526288981129,0.021871745418453,0.080739186811313,0.00143309009559431,0.0154489075525246,0.0962956301911342,0.00515880010805401,0.138470788506672,0.639813325027274,0.639813325027274,42,1,0.000768526288981175,0.0218717454184518,0.0807391868113132,0.00143309009559431,0.0154489075525256,0.0962956301911399,0.00515880010805402,0.138470788506665,0.639813325027275,0.639813325027275
101.93,14.08063,-316.9161,301.7094,1.48805,-185.5685,377.6141,"False",1,2,"Const",0,1,0,-0.0994536945369467,71.7517804508458,"L",1,0,0,5,-185.750202486297,-186.658714917782,-186.174174954323,-185.807213649533,-187.0007818972,-186.364212165111,-185.865779100566,-187.352174603395,-186.559430335219,377.375386350467,376.1818181028,376.818387834889,377.795802486297,378.704314917782,378.219774954323,377.573787019872,377.372222119234,377.479723399574,13.9908914977689,12.9727507111661,13.5045823983741,13.9976604158367,13.0164885550015,13.5279434186034,13.9048117650515,12.4050285339894,13.2049067957729,600,600,600,600,600,600,600,600,600,0,0.769679449937778,0.769679449937823,0.769679449937766,0.801116876857131,0.801116876857131,0.801116876857131,0.0157187134596884,0.0157187134596813,0.0157187134596884,"L-Const",4,0,0,0,0,0,1,0,0,0,43,43,1,0.00377140056775472,0.00718227444193014,0.0269258299492157,0.0118506429579939,0.00891959099803185,0.0557545327760688,0.0352683685384611,0.064808830352461,0.785518529418083,0.0352683685384611,43,1,0.0037714005677551,0.00718227444193006,0.0269258299492154,0.0118506429579951,0.00891959099803226,0.0557545327760714,0.0352683685384627,0.064808830352464,0.785518529418074,0.0352683685384627
103.0411,15.07867,-306.1726,314.9221,1.248726,-186.7708,377.3814,"False",1,2,"Const",0,1,0,-0.0439573395733959,3.23134120065994,"C",0,1,0,5,-186.93875786624,-187.778547197438,-187.330659554132,-187.019376256244,-188.262257537463,-187.599387520813,-187.065334102604,-188.538004615622,-187.752580342012,377.132823743756,375.889942462537,376.552812479187,377.54935786624,378.389147197438,377.941259554132,377.32439418974,377.039365138439,377.191380632466,12.7807057607798,11.8411029199898,12.3284320346143,12.7615150709456,11.7162571385161,12.2619870727887,12.6815747283315,11.183340531413,11.9823437852335,600,600,600,600,600,600,600,600,600,0,0.829913456447256,0.82991345644726,0.829913456447268,0.740882870347628,0.740882870347558,0.740882870347621,0.0445152930498081,0.044515293049843,0.0445152930498131,"C-Const",6,0,0,0,1,0,0,0,0,0,44,44,1,0.00825367472793049,0.0127260923239455,0.0557139308510506,0.0201118375221767,0.0122923329480673,0.0896059813770932,0.170767950642124,0.0978948210294215,0.53263337857819,0.53263337857819,44,1,0.00825367472793121,0.0127260923239452,0.0557139308510522,0.0201118375221785,0.0122923329480677,0.0896059813770908,0.170767950642139,0.0978948210294189,0.532633378578176,0.532633378578176
104.1522,14.7366,-295.3286,327.1974,1.390368,-188.3002,377.0855,"False",1,2,"Const",0,1,0,-0.205501575015746,-0.003928837555784,"C",0,1,0,5,-188.468174911005,-189.308049466029,-188.860116370016,-188.548764738595,-189.791588431571,-189.128749128651,-188.594738010865,-190.067428065192,-189.281993369551,376.836935261405,375.594111568429,376.256950871349,377.253474911005,378.093349466029,377.645416370016,377.028514386416,376.743586318497,376.895547954721,11.2263111309832,10.3052356211697,10.780308162979,11.2044921051463,10.1617602587206,10.7043752661058,11.1256498446262,9.62798101064773,10.4266543183376,600,600,600,600,600,600,600,600,600,0,0.835902956916668,0.83590295691672,0.835902956916678,0.734893369878229,0.734893369878229,0.734893369878234,0.0505047935192192,0.0505047935192104,0.0505047935192192,"C-Const",6,0,0,0,0,0,1,0,0,0,45,45,1,0.00295314716120026,0.00445857801716567,0.0199262273362656,0.0150077899395188,0.00898478570276122,0.0668633509499972,0.037470245716367,0.0546868891630217,0.789648986013702,0.789648986013702,45,1,0.00295314716120039,0.00445857801716586,0.0199262273362664,0.0150077899395194,0.0089847857027616,0.06686335095,0.0374702457163685,0.0546868891630271,0.789648986013691,0.789648986013691
105.2633,11.00705,-285.9186,336.3362,0.7920604,-189.6746,376.8855,"False",1,2,"Const",0,1,0,-0.0858198877475616,-2.67053000213541,"C",0,1,0,5,-189.853973779635,-190.75084267781,-190.272512598783,-189.915068391227,-191.117410347364,-190.476161304091,-189.971473246045,-191.455839476269,-190.664177486816,376.645031608773,375.442689652636,376.083938695909,377.064873779635,377.96174267781,377.483412598783,376.842299585849,376.626297515095,376.741498619497,9.82751419798736,8.86195501116205,9.35941596764872,9.82559271964477,8.84916202270134,9.35268894620449,9.73639646873251,8.23641499246391,9.03640434784901,600,600,600,600,600,600,600,600,600,0,0.789832454581275,0.789832454581238,0.789832454581302,0.780963872213612,0.780963872213602,0.780963872213634,0.0044342911838348,0.0044342911838098,0.0044342911838599,"C-Const",6,0,0,0,0,0,1,0,0,0,46,46,1,0.00414044781895974,0.00734718151913351,0.0279676174371938,0.0122139084582426,0.0085744228826656,0.0544267563418665,0.0371976786819419,0.0637262193147867,0.78440576754521,0.78440576754521,46,1,0.00414044781895991,0.00734718151913382,0.027967617437195,0.0122139084582431,0.00857442288266596,0.0544267563418688,0.0371976786819456,0.0637262193147894,0.784405767545198,0.784405767545198
106.3745,8.68982,-278.201,342.6686,1.199741,-190.8702,376.706,"False",1,2,"Acc",1,0,0,0.25593547741352,0.258808662523258,"C",0,1,0,5,-191.04848574243,-191.939914454579,-191.464485808099,-191.11147617795,-192.317857067701,-191.674453926501,-191.166875079028,-192.65025047417,-191.859116930095,376.46472382205,375.258342932299,375.901746073499,376.88428574243,377.775714454579,377.300285808099,376.661459035894,376.438754215362,376.557530119645,8.62015062051765,7.67611194697345,8.15890040026051,8.61572785965257,7.64626141389125,8.14331352574894,8.52746515627542,7.02756616823711,7.82750747758436,600,600,600,600,600,600,600,600,600,0,0.795575471207029,0.79557547120706,0.795575471207037,0.775220855587868,0.775220855587894,0.775220855587853,0.0101773078095916,0.0101773078096134,0.0101773078095807,"C-Acc",3,0,0,0,0,0,1,0,0,0,47,47,1,0.0107710404336063,0.0187317326641773,0.0727206151177839,0.00670151870230445,0.00461213582006312,0.0298618585091425,0.0360475474222957,0.0605339606620354,0.760019590668591,0.0727206151177839,47,1,0.0107710404336063,0.0187317326641763,0.0727206151177842,0.00670151870230447,0.0046121358200634,0.029861858509141,0.0360475474222978,0.0605339606620322,0.760019590668594,0.0727206151177842
107.4856,8.329259,-270.6593,348.3441,1.360848,-192.3375,376.508,"False",1,2,"Const",0,1,0,0.0511259112591114,-0.853095430268848,"C",0,1,0,5,-192.519358287011,-193.428649722065,-192.943694290036,-192.57609497783,-193.769069866978,-193.132816592765,-192.634805354741,-194.121332128444,-193.328517849136,376.26940502217,375.076430133022,375.712683407235,376.689858287011,377.599149722065,377.114194290036,376.46788110118,376.26728660708,376.374270337266,7.13665794003536,6.19748623785636,6.67291511561722,7.1391302706572,6.21454764874207,6.68172465521046,7.04687487209311,5.54690806915206,6.3468884113759,600,600,600,600,600,600,600,600,600,0,0.779736547926963,0.77973654792695,0.779736547926974,0.791059778867933,0.791059778867964,0.791059778867946,0.0056616154705252,0.005661615470584,0.0056616154705056,"C-Const",6,0,0,1,0,0,0,0,0,0,48,48,1,0.0102637446166571,0.0188697292669167,0.183679715294275,0.0162223507664714,0.0117928809230852,0.0737157900017408,0.0620557749674227,0.110113680715165,0.513286333448266,0.513286333448266,48,1,0.0102637446166577,0.0188697292669166,0.183679715294274,0.0162223507664713,0.0117928809230852,0.0737157900017405,0.062055774967426,0.110113680715165,0.513286333448264,0.513286333448264
108.5967,8.373232,-263.0243,353.715,1.313353,-193.7913,376.2406,"False",1,2,"Const",0,1,0,-0.010905859058591,2.73685807181068,"C",0,1,0,5,-193.961558176351,-194.812849058104,-194.358827254502,-194.03830638329,-195.273338299737,-194.614654610965,-194.08635059967,-195.561603598022,-194.774801998901,375.99359361671,374.758561700263,375.417245389035,376.410858176351,377.262149058104,376.808127254502,376.18633082243,375.914984934578,376.059702741432,5.67404475652256,4.85440677571712,5.25430063345616,5.65087375971048,4.6894357058295,5.17039421230295,5.5707616149109,4.07392581805196,4.87199603693225,600,600,600,600,600,600,600,600,600,0,0.838103266831756,0.838103266831707,0.838103266831769,0.732693059963145,0.732693059963136,0.73269305996312,0.0527051034343139,0.0527051034343075,0.052705103434297,"C-Const",6,0,0,0,0,0,1,0,0,0,49,49,1,0.00521791208168697,0.00781482080912077,0.0351319502323709,0.0109110829148878,0.00648264411637699,0.048608869029861,0.0376795360415566,0.0545676969683414,0.793585487805797,0.793585487805797,49,1,0.00521791208168754,0.00781482080912119,0.0351319502323708,0.0109110829148878,0.00648264411637697,0.0486088690298609,0.0376795360415586,0.0545676969683412,0.793585487805795,0.793585487805795
109.7078,8.367479,-255.2738,358.7917,1.336613,-194.9362,376.251,"False",1,2,"Const",0,1,0,-0.128627486274865,-10.9424738867429,"R",0,0,1,5,-195.150250160468,-196.220500962806,-195.649700534892,-195.146396405306,-196.197378431839,-195.636854684355,-195.236187623554,-196.736125741324,-195.93615874518,376.040803594694,374.989821568161,375.550345315645,376.465050160468,377.535300962806,376.964500534892,376.253725016407,376.267350098445,376.260083388025,4.49701621314051,3.42804947856554,3.96354976557163,4.57271677203272,3.98384567514576,4.24244500228723,4.44363313484116,2.98124922177799,3.7574985646742,600,600,600,600,600,600,600,600,600,0,0.613812910388895,0.613812910388873,0.61381291038888,0.956983416406002,0.956983416405957,0.956983416406017,0.171585253008547,0.171585253008547,0.171585253008546,"R-Const",5,0,0,0,0,0,1,0,0,0,50,50,1,0.00206329696512769,0.00679716880890104,0.0252751807043504,0.00741210687240588,0.00956181053379706,0.0597237880036773,0.0209930212210804,0.0663756019631485,0.801798024927512,0.0663756019631485,50,1,0.00206329696512779,0.006797168808901,0.0252751807043503,0.00741210687240626,0.00956181053379701,0.059723788003677,0.0209930212210815,0.0663756019631519,0.801798024927507,0.0663756019631519
110.8189,8.343572,-247.363,363.5336,1.027517,-195.1442,376.4128,"False",1,2,"Const",0,1,0,-0.601481864818644,-37.3583505672803,"R",0,0,1,5,-195.441885839251,-196.930315035508,-196.136486130838,-195.18139060512,-195.36734363072,-195.268168683734,-195.380993404675,-196.564960428048,-195.933511348916,376.37560939488,376.18965636928,376.288831316266,376.710485839251,378.198915035508,377.405086130838,376.596997946521,377.517987679126,377.02679315507,4.26498806573971,2.77357471603238,3.56809942448465,4.59782934280204,5.03906593459441,4.75019701890762,4.37554995733239,3.66395988988285,3.98945037112953,600,600,600,600,600,600,600,600,600,0,0.0805841080092513,0.0805841080092209,0.0805841080092389,1.65138043480415,1.65138043480413,1.65138043480416,0.865982271406714,0.865982271406665,0.865982271406704,"R-Const",5,0,0,0,0,1,0,0,0,0,51,51,1,9.63998546119213e-05,0.0027311940507405,0.010077353826836,0.00300731010822674,0.0323695617231126,0.201790327760953,0.00386465095564827,0.268626985942833,0.477436215777038,0.268626985942833,51,1,9.63998546119267e-05,0.00273119405074035,0.010077353826836,0.00300731010822674,0.0323695617231126,0.201790327760953,0.00386465095564849,0.268626985942833,0.477436215777038,0.268626985942833
111.93,7.82334,-239.5121,367.6897,0,-196.0247,377.0979,"False",1,2,"Dec",0,0,1,-0.456300805508049,-0.006996483635111,"C",0,1,0,5,-196.322390378439,-197.810842270634,-197.017001261463,-196.061854253926,-196.247625523558,-196.148547513088,-196.261470910189,-197.445325461137,-196.813936367298,377.060745746074,376.874974476442,376.974052486912,377.395590378439,378.884042270634,378.090201261463,377.282126860387,378.203261162322,377.711989534623,3.64846797930998,2.27610781297877,2.9928271606462,4.0325595374555,4.78351060819778,4.33486722254303,3.80301430871898,3.47710543324896,3.57710476983904,600,600,600,600,600,600,600,600,600,0,0.298455810883824,0.298455810883767,0.298455810883798,1.86925213767872,1.86925213767875,1.86925213767872,1.08385397428127,1.0838539742812,1.08385397428129,"C-Dec",9,0,0,0,0,1,0,0,0,0,52,52,1,0.000153217375650329,0.00436288917362494,0.0161209290890505,0.00246200732820889,0.0265284518548404,0.165352077709738,0.00403194007338504,0.281190965566215,0.499797521829287,0.165352077709738,52,1,0.000153217375650338,0.00436288917362494,0.0161209290890505,0.00246200732820889,0.0265284518548419,0.165352077709738,0.00403194007338527,0.281190965566199,0.499797521829302,0.165352077709738
113.0411,6.802473,-232.4027,370.9418,0.01352535,-196.0247,377.0979,"False",1,2,"Const",0,1,0,0.0216207182071822,0,"C",0,1,0,5,-196.0247,-196.0247,-196.0247,-196.0247,-196.0247,-196.0247,-196.0247,-196.0247,-196.0247,377.0979,377.0979,377.0979,377.0979,377.0979,377.0979,377.0979,377.0979,377.0979,3.93413890959633,3.93413890959633,3.93413890959633,3.93413890959633,3.93413890959633,3.93413890959633,3.93413890959633,3.93413890959633,3.93413890959633,600,600,600,600,600,600,600,600,600,0,0,0,0,0,0,0,0,0,0,"C-Const",6,0,0,0,0,0,0,0,0,1,53,53,1,0.00297592676142506,0.00536353049935736,0.078861054889301,0.00527550236250009,0.00376071743704062,0.237089751058548,0.0194002642735425,0.0337528235356511,0.613520429182634,0.613520429182634,53,1,0.00297592676142522,0.00536353049935736,0.0788610548893009,0.00527550236250008,0.00376071743704061,0.237089751058548,0.0194002642735436,0.0337528235356511,0.613520429182633,0.613520429182633
114.1522,5.674806,-226.2816,373.4022,0.04804556,-196.0247,377.0979,"False",1,2,"Const",0,1,0,0.67143760687606,0,"C",0,1,0,5,-196.0247,-196.0247,-196.0247,-196.0247,-196.0247,-196.0247,-196.0247,-196.0247,-196.0247,377.0979,377.0979,377.0979,377.0979,377.0979,377.0979,377.0979,377.0979,377.0979,3.93413890959633,3.93413890959633,3.93413890959633,3.93413890959633,3.93413890959633,3.93413890959633,3.93413890959633,3.93413890959633,3.93413890959633,600,600,600,600,600,600,600,600,600,0,0,0,0,0,0,0,0,0,0,"C-Const",6,0,0,0,0,0,1,0,0,0,54,54,1,0.00863505060737781,0.0155630030605952,0.228825927017849,0.000794565852402592,0.000566417650999093,0.0137366820507305,0.00861554057546429,0.0149894257422292,0.708273387442352,0.708273387442352,54,1,0.00863505060737829,0.0155630030605952,0.228825927017849,0.000794565852402591,0.000566417650999125,0.0137366820507304,0.00861554057546477,0.0149894257422292,0.708273387442352,0.708273387442352
115.2633,4.563537,-221.2399,375.2503,1.505594,-196.0518,377.1153,"False",1,2,"Acc",1,0,0,0.414852737644751,0,"C",0,1,0,5,-196.344917194108,-197.81050316465,-197.028857313695,-196.115692961412,-196.435157768474,-196.264776538041,-196.304244301921,-197.566465811527,-196.893281006404,377.051407038588,376.731942231526,376.902323461959,377.408417194108,378.87400316465,378.092357313695,377.277386009352,378.08781605611,377.655586697839,3.62411767701768,2.1919225741875,2.94737740478553,3.99140140860271,4.64616639581213,4.24388435971718,3.76311527103321,3.31140003752201,3.47990310022345,600,600,600,600,600,600,600,600,600,0,0.214891416843699,0.214891416843736,0.214891416843677,1.78568774363858,1.78568774363863,1.78568774363857,1.00028958024113,1.0002895802411,1.00028958024112,"C-Acc",3,0,0,0,0,0,1,0,0,0,55,55,1,0.00110830826296165,0.0315243030689289,0.116413844496685,0.000337904718016783,0.0036396922363707,0.0226868296888019,0.0023571763000669,0.0631786218021203,0.758753319426048,0.116413844496685,55,1,0.00110830826296168,0.0315243030689282,0.116413844496683,0.000337904718016776,0.00363969223637062,0.0226868296888014,0.00235717630006698,0.0631786218021189,0.758753319426053,0.116413844496683
116.3745,3.439406,-217.3514,376.5985,0.9697934,-197.0687,377.782,"False",1,2,"Const",0,1,0,0.053729999356579,-0.546493337878958,"C",0,1,0,5,-197.362413269698,-198.830979618191,-198.047744232329,-197.129794313999,-197.435265883993,-197.272347713329,-197.319586848449,-198.574021090693,-197.904989494829,377.720905686001,377.415434116007,377.578352286671,378.075713269699,379.544279618191,378.761044232328,377.946486441008,378.768918646047,378.330288136693,3.17272680248764,2.08335444160159,2.61421910598139,3.58890559641048,4.60702223021326,4.02669859684354,3.36462925091299,3.44493447348379,3.31902450181754,600,600,600,600,600,600,600,600,600,0,0.529489137670808,0.529489137670897,0.529489137670792,2.1002854644657,2.10028546446572,2.10028546446571,1.31488730106825,1.31488730106826,1.31488730106829,"C-Const",6,0,0,1,0,0,0,0,0,0,56,56,1,0.000745322977038729,0.0212303872496757,0.204539548020027,0.00116778680366255,0.0125914750222713,0.0784913966296073,0.00447771046860209,0.120305080857609,0.556451291971507,0.556451291971507,56,1,0.000745322977038717,0.0212303872496753,0.204539548020024,0.00116778680366253,0.0125914750222711,0.0784913966296061,0.00447771046860202,0.120305080857607,0.556451291971514,0.556451291971514
117.4856,2.275912,-214.6647,377.5052,1.624891,-197.2862,377.9738,"False",1,2,"Acc",1,0,0,0.165667176671761,-8.15745633093832,"C",0,1,0,5,-197.585610352931,-199.082662117587,-198.28423450977,-197.305000014831,-197.399000088986,-197.348866716103,-197.511208708888,-198.636252253331,-198.036229029628,377.954999985169,377.860999911014,377.911133283897,378.273210352931,379.770262117587,378.97183450977,378.172221472942,379.16432883765,378.635204909806,3.19584900362447,2.4350857528651,2.76664785373185,3.61987571309226,4.82389247075561,4.15786460747798,3.41191844734282,3.80736949190777,3.52327439622023,600,600,600,600,600,600,600,600,600,0,0.756522958315263,0.756522958315231,0.75652295831525,2.32731928511016,2.32731928511013,2.32731928511015,1.54192112171271,1.54192112171275,1.5419211217127,"C-Acc",3,0,0,0,0,0,1,0,0,0,57,57,1,0.000578100778249309,0.0164208671075626,0.0610430500756029,0.000540421610997504,0.00582796317014919,0.0363420967948656,0.00250317004960283,0.0672242285319628,0.809520101881007,0.0610430500756029,57,1,0.000578100778249304,0.0164208671075634,0.0610430500756024,0.0005404216109975,0.00582796317014948,0.0363420967948674,0.00250317004960281,0.0672242285319661,0.809520101881001,0.0610430500756024
118.5967,1.152101,-213.1673,378.0055,1.337939,-198.0332,378.701,"True",1,2,"Const",0,1,0,-0.0443798937989406,-2.82339847283413,"C",0,1,0,5,-198.333172944842,-199.833037669052,-199.03310981614,-198.037228940651,-198.057373643907,-198.04662980217,-198.248161794726,-199.322970768354,-198.749739315752,378.696971059349,378.676826356093,378.68757019783,379.000972944842,380.500837669052,379.70090981614,378.910264012215,379.95658407329,379.398546707383,3.45809843996078,3.20012081377474,3.25528259011877,3.8534526933427,5.25211293280914,4.49804115211283,3.68770849263401,4.48165905216697,4.00824505598358,600,600,600,600,600,600,600,600,600,0,1.10091927600103,1.10091927600106,1.10091927600106,2.67171560279593,2.67171560279596,2.67171560279593,1.88631743939848,1.88631743939847,1.8863174393985,"C-Const",6,0,0,1,0,0,0,0,0,0,58,58,1,0.000589914037522874,0.0166391884242249,0.161620672071938,0.00141990061425205,0.015303207647424,0.0955119695685807,0.0046587400674652,0.124726859405996,0.579529548162597,0.579529548162597,58,1,0.000589914037522894,0.0166391884242245,0.161620672071934,0.00141990061425202,0.0153032076474236,0.0955119695685812,0.00465874006746509,0.124726859405996,0.5795295481626,0.5795295481626
119.7078,0.05814843,-212.8346,378.1138,1.52627,-199.0816,379.7218,"False",1,2,"Const",0,1,0,-0.0488488884888875,-0.0053003496655133,"C",0,1,0,0,-199.38157331627,-200.88143989762,-200.081511054233,-199.085601190571,-199.105607143425,-199.094937301903,-199.296542435095,-200.37125461057,-199.79807478365,379.717798809429,379.697792856575,379.708462698097,380.02177331627,381.52163989762,380.721711054233,379.931083897124,380.977503382745,380.419412990414,12.2735472497686,11.8904182118972,12.0730940897936,12.0882722354453,10.6911284029998,11.4330287349472,12.1004311353259,10.7733409239929,11.475822677665,13.5483113019225,12.05765606587,12.8524015957851,13.8807539578109,14.1456218535526,13.9849751921224,13.6594847411397,12.7881107033281,13.2388383545573,0.05814843,1.22989246524383,1.22989246524374,1.22989246524379,0.340903861551083,0.340903861551067,0.340903861551076,0.444494301846369,0.444494301846301,0.444494301846362,"C-Const",6,0,0,0,0,0,1,0,0,0,59,59,1,0.00827477471131649,0.00128306014003424,0.0404427147805091,0.0107523756558295,0.00143015969683536,0.0456047136255103,0.0472003982202601,0.0107683754304084,0.834243427739296,0.834243427739296,59,1,0.00827477471131553,0.00128306014003436,0.0404427147805071,0.0107523756558304,0.0014301596968355,0.0456047136255136,0.0472003982202597,0.0107683754304096,0.834243427739294,0.834243427739294
120.8189,0.0549702,-212.7492,378.1375,1.229387,-199.902,380.8535,"False",1,2,"Const",0,1,0,-0.0744014940149426,-9.82481976318013,"C",0,1,0,0,-200.198256678228,-201.679540069369,-200.889522260761,-199.854756158018,-199.61853694811,-199.744520526728,-200.078078665112,-200.958471990674,-200.488928883708,380.900743841982,381.13696305189,381.010979473272,381.149756678228,382.631040069369,381.841022260761,381.096391547181,382.310849283089,381.663138490605,10.8962201419806,10.3270820973312,10.6080512805923,10.7655590046197,9.46924011954962,10.1536320087852,10.7454474573902,9.33117306168916,10.0823696402073,12.8515249988699,11.4688338369455,12.2028210001592,13.2416151692137,13.8782641038892,13.5217515632591,13.0120081106425,12.507522185811,12.7571303439065,0.0549702,1.09259077816279,1.09259077816275,1.09259077816278,0.478205548632109,0.478205548632145,0.478205548632121,0.307192614765336,0.307192614765399,0.307192614765328,"C-Const",6,0,0,0,0,0,1,0,0,0,60,60,1,0.00791980001303547,0.00172976301181582,0.0339997173306988,0.0121556913624336,0.00253507230792481,0.0505011754622959,0.0500226492736453,0.0169789607239169,0.824157170514233,0.824157170514233,60,1,0.00791980001303467,0.00172976301181603,0.0339997173306983,0.0121556913624342,0.00253507230792499,0.0505011754622978,0.0500226492736446,0.0169789607239188,0.824157170514231,0.824157170514231
121.93,0.003938415,-212.7379,378.1369,1.360935,-200.4311,382.0875,"False",1,2,"Const",0,1,0,0.0617055170551698,-12.7312578205819,"R",0,0,1,0,-200.709661527004,-202.102469162023,-201.359638423346,-200.319729107603,-199.762874645618,-200.05986369201,-200.549321631481,-201.140429788889,-200.825172104938,382.198870892397,382.755725354382,382.45873630799,382.366061527004,383.758869162023,383.016038423346,382.363223857963,383.741843147776,383.006579526543,9.50606281835692,8.66221437273889,9.09123954631555,9.46417813700122,8.38251649884138,8.94438901376938,9.39533666428234,7.90421926639473,8.69910180712309,12.6955948381296,11.5950824388474,12.1714052426092,13.1185660624271,14.1406442641621,13.5844983853243,12.9005137881366,12.8808657701034,12.8696101181431,0.003938415,0.882146051219599,0.882146051219646,0.882146051219607,0.688650275575306,0.688650275575286,0.688650275575316,0.0967478878221398,0.0967478878221559,0.0967478878221478,"R-Const",5,0,0,0,0,0,1,0,0,0,61,61,1,0.0111689432227991,0.00481113393151634,0.0433407452279628,0.0104719743251196,0.00445662712818208,0.0427203797315636,0.0511016859194401,0.0346346993038434,0.797293811209573,0.0346346993038434,61,1,0.0111689432227978,0.00481113393151709,0.0433407452279627,0.0104719743251197,0.00445662712818215,0.042720379731564,0.051101685919438,0.0346346993038465,0.797293811209572,0.0346346993038465
123.0411,0.00306156,-212.7359,378.1339,1.366509,-200.8382,383.5188,"False",1,2,"Const",0,1,0,-0.0533507335073354,-7.33094651080514,"C",0,1,0,0,-201.100273509903,-202.410641059415,-201.711778366342,-200.692194947322,-199.962169683935,-200.351516491075,-200.920272793186,-201.330636759114,-201.111775977286,383.664805052677,384.394830316065,384.005483508925,383.780873509903,385.091241059415,384.392378366342,383.807355118857,385.250130713143,384.480650396191,7.98947964519321,6.99593507014878,7.50491409032689,8.00552250318073,7.105120744477,7.56168548207185,7.90688684318057,6.40824116315629,7.20744873975569,12.8832726633721,12.0751902930239,12.4902662379937,13.3018472859009,14.545541612624,13.875932630209,13.1071407742534,13.4432425090294,13.2439231305149,0.00306156,0.748540238900981,0.748540238901013,0.748540238900949,0.822256087893937,0.822256087893966,0.822256087893923,0.0368579244964841,0.0368579244964811,0.036857924496463,"C-Const",6,0,0,0,0,1,0,0,0,0,62,62,1,0.0112090353416249,0.00796849565985038,0.0478469426231884,0.0201789104631584,0.0136540152421685,0.0927714905617285,0.0767514492255941,0.217798001347762,0.511821659534925,0.511821659534925,62,1,0.0112090353416237,0.00796849565985176,0.0478469426231902,0.0201789104631573,0.0136540152421689,0.0927714905617263,0.076751449225591,0.217798001347781,0.51182165953491,0.51182165953491
124.1522,0.003422916,-212.7342,378.1313,1.242379,-201.3532,384.9199,"False",1,2,"Const",0,1,0,-0.0380897308973099,4.30465997514844,"C",0,1,0,0,-201.625493323302,-202.986959939809,-202.260844411005,-201.227278015877,-200.597668095264,-200.933460052924,-201.456700166505,-201.974200999028,-201.698200555016,385.045821984123,385.675431904736,385.339639947076,385.192193323302,386.553659939809,385.827544411005,385.201480744252,386.609384465512,385.85850248084,6.51705588183453,5.66202315005206,6.08706651843462,6.49658123818728,5.51904055576696,6.01366889049905,6.41560371286388,4.91794956796801,5.71654536514051,13.0848759374264,12.325689229696,12.7142181075415,13.5005728793903,14.7726623744802,14.0886351834532,13.3105018031206,13.6987406247897,13.4723027701129,0.003422916,0.832176454256116,0.832176454256017,0.83217645425614,0.738619872538795,0.738619872538794,0.738619872538795,0.0467782908586656,0.0467782908586395,0.0467782908586632,"C-Const",6,0,0,0,0,0,1,0,0,0,63,63,1,0.007845909832279,0.00420048252949085,0.0293357181214021,0.0134169688018967,0.00680766411793704,0.0542609597658596,0.0519042472981025,0.0425565046413803,0.789671544891652,0.789671544891652,63,1,0.00784590983227841,0.00420048252949161,0.0293357181214034,0.0134169688018965,0.00680766411793736,0.0542609597658595,0.0519042472980994,0.0425565046413843,0.789671544891649,0.789671544891649
125.2633,2.7535e-05,-212.7338,378.1305,1.281866,-201.9118,386.17,"False",1,2,"Const",0,1,0,-0.0557929770289905,3.89537564671361,"C",0,1,0,0,-202.192018742438,-203.593112454626,-202.845862474792,-201.804667108755,-201.269002652527,-201.554690362515,-202.034190179105,-202.646141074633,-202.319767263685,386.277132891246,386.812797347473,386.527109637485,386.450218742438,387.851312454626,387.104062474792,386.443898966881,387.813393801287,387.08299655627,5.18342589950429,4.51688364183908,4.8260328585883,5.1200971917872,4.06044148093338,4.59516744103607,5.06062474252925,3.58529639056457,4.37004831197519,13.3227917324791,12.6069209576361,12.9720608195735,13.7354892780626,15.0311600682263,14.3351775634595,13.54969566824,13.9828214235014,13.7331450302934,2.7535e-05,0.929435161923799,0.929435161923746,0.929435161923795,0.641361164871089,0.641361164871063,0.641361164871085,0.144036998526361,0.144036998526359,0.14403699852637,"C-Const",6,0,0,0,0,0,1,0,0,0,64,64,1,0.00752754848795109,0.00289125268017373,0.0280013325652861,0.0141588902551762,0.00513952495554521,0.0572045956848088,0.0528115628659309,0.0310135088589065,0.801251783646222,0.801251783646222,64,1,0.00752754848795019,0.00289125268017414,0.0280013325652873,0.0141588902551758,0.00513952495554535,0.0572045956848077,0.0528115628659271,0.0310135088589084,0.801251783646224,0.801251783646224
126.3745,0.1232906,-212.6617,378.1543,1.118372,-202.4261,387.5426,"False",1,2,"Const",0,1,0,-0.0118435599890348,-3.53671503366612,"C",0,1,0,0,-202.699176230755,-204.064557384529,-203.336354102516,-202.301884975962,-201.680809855773,-202.012049919874,-202.531360768725,-203.057664612352,-202.776969229084,387.666815024038,388.287890144227,387.956650080126,387.815676230755,389.181057384529,388.452854102516,387.82352734037,389.22816404222,388.4790244679,3.7189824706669,3.11423368628053,3.36784604860306,3.66839005148264,2.7305642583359,3.177510060208,3.60045287658302,2.11967762854847,2.90697230894665,13.7746078686589,13.2891124745753,13.5295285653663,14.1657318202935,15.561790603168,14.8146975477592,14.0042040223807,14.6583750993341,14.2936292715162,0.1232906,0.898626276716549,0.898626276716622,0.898626276716534,0.672170050078334,0.672170050078322,0.672170050078337,0.113228113319112,0.11322811331911,0.113228113319091,"C-Const",6,0,0,0,0,0,1,0,0,0,65,65,1,0.0081346795935025,0.00371359239004519,0.0303062420791081,0.0138095224108531,0.00562775590531367,0.055733652880399,0.0529681597405322,0.0357975234712958,0.79390887152895,0.79390887152895,65,1,0.00813467959350203,0.00371359239004574,0.0303062420791097,0.0138095224108523,0.00562775590531364,0.0557336528803972,0.0529681597405307,0.0357975234712986,0.79390887152895,0.79390887152895
127.4856,4.146529,-209.4184,379.1178,1.255519,-202.1875,388.8572,"False",1,2,"Const",0,1,0,0.0439883898838979,-30.8276928605047,"R",0,0,1,0,-202.358338942197,-203.212533653184,-202.756963140658,-201.940894939572,-200.70786963743,-201.365483131905,-202.133925264015,-201.866051584088,-202.008917546716,389.103805060428,390.33683036257,389.679216868095,389.028038942197,389.882233653184,389.426663140658,389.152377485022,390.628264910134,389.841124950074,2.44121406932077,1.00037470154835,1.7565393223131,2.70608214521462,3.02999607423763,2.7622355448979,2.50036202530408,1.65965487240423,2.01487240504415,12.2296671748173,12.8210537550864,12.4867236412389,12.4147459829099,13.8472513904768,13.0813657290536,12.3998515104869,13.7669447969676,13.0341907386082,4.146529,0.158005885907316,0.158005885907224,0.15800588590728,1.4127904408876,1.41279044088762,1.41279044088758,0.627392277490138,0.627392277490156,0.627392277490144,"R-Const",5,0,0,0,0,0,1,0,0,0,66,66,1,0.00103307370425631,0.0108775310095428,0.0415458350544386,0.00219664701631343,0.0126488545697065,0.0793851520877014,0.00740259876096026,0.0886300453362994,0.756280262460781,0.0886300453362994,66,1,0.00103307370425634,0.0108775310095441,0.0415458350544433,0.00219664701631321,0.0126488545697057,0.0793851520876972,0.00740259876096029,0.0886300453363013,0.756280262460779,0.0886300453363013
128.5967,8.713357,-201.2418,381.2977,1.216123,-201.1815,389.6775,"False",1,2,"Const",0,1,0,-0.042457024570246,-40.5187348599028,"R",0,0,1,0,-201.15115218169,-200.999413090138,-201.080340605632,-200.88303893064,-199.390733583837,-200.186629768798,-200.948997005814,-199.786482034881,-200.406490019378,389.97596106936,391.468266416163,390.672370231202,389.64715218169,389.495413090138,389.576340605632,389.867084697944,390.815008187661,390.309448993145,2.59870979159229,2.37764948752044,2.3832591165025,3.00187225656796,4.38188131611463,3.63406185452422,2.82804042414106,3.62220063545028,3.13501582376446,8.67873448233912,10.1734543120639,9.37606053093767,8.35715628902621,8.40410297326623,8.34561408729364,8.57438555785504,9.62793360584278,9.05037914560354,8.713357,1.02763561909247,1.02763561909244,1.02763561909247,2.59843194588737,2.59843194588734,2.5984319458874,1.81303378248993,1.81303378248985,1.81303378248994,"R-Const",5,0,0,0,0,1,0,0,0,0,67,67,1,0.000397103777594384,0.0239013419587524,0.0528449859473125,0.0017975632751821,0.022242584386643,0.126450445335221,0.00438598507833504,0.474993106234028,0.292986884006932,0.474993106234028,67,1,0.000397103777594482,0.0239013419587508,0.0528449859473191,0.0017975632751821,0.0222425843866426,0.126450445335221,0.00438598507833561,0.474993106234013,0.292986884006942,0.474993106234013
129.7078,13.22114,-188.0401,383.9693,1.161171,-199.9486,390.3725,"False",1,2,"Const",0,1,0,0.0763297632976293,-9.78360326345282,"C",0,1,0,1,-199.867976802413,-199.464860814478,-199.679856008043,-199.659636507477,-198.214819044864,-198.985388358258,-199.687262745187,-198.380576471123,-199.077475817291,390.661463492523,392.106280955136,391.335711641742,390.291876802413,389.888760814478,390.103756008043,390.519818835343,391.25641301206,390.863562784478,24.6750840341997,23.8071090710084,24.2623539294806,24.6180714721728,23.4502978190907,24.0685283010829,24.5586132200783,23.0732032780545,23.8651947864391,600,600,600,600,600,600,600,600,600,0,0.919043849867105,0.919043849867137,0.919043849867108,0.651752476927776,0.651752476927876,0.651752476927816,0.133645686469643,0.133645686469726,0.133645686469644,"C-Const",6,0,0,0,0,1,0,0,0,0,68,68,1,0.0118661991879911,0.0133908701055235,0.0799721501249746,0.0166971981711765,0.00749951461411146,0.0743655640735938,0.0666788518755488,0.18946618610604,0.540063465741041,0.540063465741041,68,1,0.0118661991879915,0.0133908701055233,0.0799721501249733,0.0166971981711772,0.00749951461411176,0.0743655640735925,0.0666788518755515,0.189466186106047,0.540063465741032,0.540063465741032
130.8189,17.76704,-169.6545,386.1167,1.385743,-198.897,391.2235,"False",1,2,"Const",0,1,0,0.0630550805508014,9.57081580594466,"C",0,1,0,1,-198.865543956348,-198.708263738089,-198.79214652116,-198.598653695653,-197.106922173915,-197.902512318842,-198.663794523278,-197.497767139671,-198.119648410928,391.521846304347,393.013577826085,392.217987681158,391.192043956348,391.034763738089,391.11864652116,391.41221991317,392.355819479023,391.852566377235,23.4334867606583,22.8123441347371,23.1335942279438,23.2998206980604,21.9755114097621,22.6790870900017,23.2824099989343,21.8645129490885,22.6194067242767,600,600,600,600,600,600,600,600,600,0,1.10308800681627,1.10308800681625,1.10308800681626,0.467708319978643,0.467708319978549,0.467708319978607,0.317689843418808,0.317689843418866,0.317689843418789,"C-Const",6,0,0,0,0,0,1,0,0,0,69,69,1,0.00674603549037224,0.00399613219657309,0.0452625618296876,0.0100321014835324,0.00238521291487256,0.0446485038085203,0.0392793775354211,0.022640754492301,0.82500932024872,0.82500932024872,69,1,0.00674603549037226,0.00399613219657288,0.0452625618296852,0.0100321014835318,0.00238521291487257,0.044648503808518,0.0392793775354235,0.0226407544923011,0.825009320248723,0.825009320248723
131.93,14.91502,-151.3102,387.4007,1.301292,-197.9234,392.0617,"False",1,2,"Const",0,1,0,-0.0262105121051211,1.74482358607076,"C",0,1,0,1,-197.901042651931,-197.789255911584,-197.848875506435,-197.624234244962,-196.128405469774,-196.926180816541,-197.696048833485,-196.559293000909,-197.165562778283,392.360865755038,393.856694530226,393.058919183459,392.039342651931,391.927555911584,391.987175506435,392.257433101657,393.236098609941,392.714143672189,22.2438725007885,21.6962256334602,21.9772645519816,22.0899906199375,20.7314528502843,21.4536608308797,22.0841889632311,20.6943334449845,21.4337417396575,600,600,600,600,600,600,600,600,600,0,1.15313993489706,1.15313993489705,1.15313993489706,0.41765639189784,0.417656391897748,0.417656391897839,0.367741771499618,0.367741771499525,0.367741771499616,"C-Const",6,0,0,0,0,0,1,0,0,0,70,70,1,0.00526295616662353,0.00261651021954717,0.0352720626837326,0.0117326995510337,0.00234644214651828,0.0522077560502512,0.0396243004832604,0.0191920808217644,0.831745191877269,0.831745191877269,70,1,0.00526295616662386,0.00261651021954704,0.0352720626837308,0.0117326995510338,0.00234644214651816,0.0522077560502485,0.0396243004832606,0.0191920808217645,0.831745191877273,0.831745191877273
133.0411,15.4591,-134.8149,388.0015,1.327498,-196.9379,392.8574,"False",1,2,"Const",0,1,0,0.0205166051660518,-1.80843536157791,"C",0,1,0,1,-196.906112741316,-196.747176447895,-196.831942471053,-196.639588803118,-195.148032818706,-195.943529343726,-196.70448514361,-195.537410861658,-196.159850478699,393.155711196882,394.647267181294,393.851770656274,392.825612741316,392.666676447895,392.751442471053,393.045860884048,393.988165304291,393.485602946828,21.0491127679604,20.4882087225768,20.7757680374126,20.8998847889548,19.5501128359786,20.2673626911662,20.8913289131682,19.4951673319074,20.2379376998726,600,600,600,600,600,600,600,600,600,0,1.14131322819221,1.1413132281922,1.1413132281922,0.429483098602707,0.429483098602711,0.429483098602669,0.355915064794749,0.355915064794725,0.355915064794763,"C-Const",6,0,0,0,0,0,1,0,0,0,71,71,1,0.00600818275438689,0.00311304122730832,0.040273962725875,0.0108304241466781,0.00225635303510186,0.0481947509290735,0.0395290910824853,0.0199490595331283,0.829845134565963,0.829845134565963,71,1,0.00600818275438691,0.00311304122730815,0.0402739627258728,0.0108304241466788,0.00225635303510186,0.0481947509290708,0.0395290910824876,0.0199490595331284,0.829845134565965,0.829845134565965
134.1522,14.84312,-118.0826,387.8634,1.346884,-195.8027,393.6991,"False",1,2,"Const",0,1,0,-0.0012244622446224,-2.36238289314296,"C",0,1,0,1,-195.758643465493,-195.538360792957,-195.655844884976,-195.505952596023,-194.022215576137,-194.813541986743,-195.561715224043,-194.356791344255,-194.999417413475,393.995847403977,395.479584423863,394.688258013257,393.655043465493,393.434760792957,393.552244884976,393.877779427346,394.771176564077,394.294698091154,19.7050115927165,19.121427666745,19.4204408241328,19.5634084558675,18.2281597334081,18.9372230525938,19.5503848400766,18.1441282284541,18.8923372532444,600,600,600,600,600,600,600,600,600,0,1.12213789701843,1.12213789701847,1.12213789701842,0.448658429776467,0.448658429776437,0.448658429776454,0.336739733620975,0.336739733620915,0.336739733620986,"C-Const",6,0,0,0,0,0,1,0,0,0,72,72,1,0.00563450296429471,0.00312186028117248,0.037781513393556,0.0112188492764364,0.00249740639454539,0.0499265054568763,0.0394826454153066,0.0212985556664877,0.829038161151324,0.829038161151324,72,1,0.005634502964295,0.00312186028117246,0.0377815133935557,0.0112188492764363,0.00249740639454551,0.0499265054568788,0.0394826454153086,0.0212985556664888,0.829038161151319,0.829038161151319
135.2633,14.7743,-101.5541,387.3848,1.324777,-194.7143,394.3889,"False",1,2,"Const",0,1,0,0.0495568144319981,-4.18980606506749,"C",0,1,0,1,-194.648680617254,-194.320583703521,-194.495568724178,-194.421564459609,-192.957886757654,-193.738514865364,-194.460904803778,-193.193928822668,-193.869649345926,394.681635540391,396.145313242346,395.364685134636,394.323280617253,393.995183703521,394.170168724178,394.549495375187,395.352472251124,394.924217917291,18.4493150366303,17.7933789181534,18.1307255523905,18.3300858169447,17.0379945339627,17.7230343012097,18.3042637089217,16.8706076047807,17.6338507159523,600,600,600,600,600,600,600,600,600,0,1.06707247502883,1.06707247502887,1.06707247502885,0.503723851766062,0.503723851766025,0.503723851766049,0.281674311631388,0.281674311631467,0.281674311631398,"C-Const",6,0,0,0,0,0,1,0,0,0,73,73,1,0.00646428713715985,0.004342836810548,0.0433948319802185,0.0102297925290179,0.00275459061861798,0.0455340590409119,0.0391485189423023,0.0255734758511899,0.822557607090034,0.822557607090034,73,1,0.00646428713716054,0.00434283681054797,0.0433948319802206,0.010229792529019,0.00275459061861811,0.0455340590409115,0.0391485189423042,0.0255734758511911,0.822557607090027,0.822557607090027
136.3745,15.56769,-84.68376,386.1729,1.457028,-193.5644,395.1516,"False",1,2,"Const",0,1,0,0.0018721919708689,1.18985028094888,"C",0,1,0,1,-193.504873511203,-193.207241067218,-193.365978370676,-193.270364972951,-191.800189837708,-192.584283243171,-193.314394254579,-192.064365527474,-192.731047515263,395.445635027049,396.915810162292,396.131716756829,395.092073511203,394.794441067218,394.953178370676,395.317422577644,396.146535465863,395.704341925479,17.1490666491013,16.560943835178,16.8605613201657,17.0115128278253,15.6866615711435,16.3894925857255,16.9960138498284,15.5855336707264,16.3358050773506,600,600,600,600,600,600,600,600,600,0,1.11162576372308,1.1116257637231,1.11162576372308,0.459170563071815,0.459170563071911,0.459170563071814,0.32622760032563,0.326227600325612,0.326227600325638,"C-Const",6,0,0,0,0,0,1,0,0,0,74,74,1,0.00567848218585667,0.00326363287697482,0.038077910563755,0.0111491960326332,0.00257371481552475,0.0496181601075066,0.0394369889597012,0.0220646452295722,0.828137269228475,0.828137269228475,74,1,0.00567848218585695,0.0032636328769748,0.0380779105637547,0.0111491960326344,0.00257371481552473,0.0496181601075063,0.0394369889597054,0.0220646452295733,0.828137269228469,0.828137269228469
137.4856,15.03863,-67.82491,384.5178,1.328961,-192.2673,395.8098,"False",1,2,"Const",0,1,0,-0.01659841598416,-6.65027973538379,"C",0,1,0,1,-192.174122179349,-191.708233076091,-191.956707264495,-191.982137075098,-190.556322450588,-191.316756916993,-191.99977269322,-190.66213615932,-191.375542310733,396.094962924902,397.520777549412,396.760343083007,395.716622179349,395.250733076091,395.499207264495,395.945553969102,396.624323814614,396.262313230341,15.7039842835473,14.9882613140216,15.3559040101736,15.6062906929292,14.3629766449456,15.020244472623,15.5682832193277,14.1133233978818,14.888189548565,600,600,600,600,600,600,600,600,600,0,1.01468966711307,1.0146896671131,1.01468966711306,0.556106659681824,0.556106659681799,0.556106659681814,0.229291503715623,0.229291503715658,0.229291503715603,"C-Const",6,0,0,0,0,0,1,0,0,0,75,75,1,0.00531324297659517,0.00428766212603865,0.035703441160156,0.0113774520107131,0.0036716429880611,0.0506523033483728,0.0389778225016857,0.0305474051017285,0.819469027786649,0.819469027786649,75,1,0.0053132429765954,0.00428766212603859,0.0357034411601575,0.0113774520107136,0.00367164298806104,0.050652303348375,0.0389778225016918,0.0305474051017298,0.819469027786637,0.819469027786637
138.5967,14.93674,-51.22896,382.6335,1.420143,-191.0435,396.3447,"False",1,2,"Const",0,1,0,-0.0212523625236255,-3.29580964394917,"C",0,1,0,1,-190.934081987936,-190.386991927615,-190.678773293119,-190.764165615013,-189.36749369008,-190.112385383378,-190.768610543843,-189.394163263056,-190.127201812809,396.624034384987,398.02070630992,397.275814616622,396.235281987936,395.688191927615,395.979973293119,396.464849019528,397.065594117169,396.74519673176,14.379393713291,13.6143783321531,14.0076045777324,14.2991841687044,13.0976915272563,13.7311810769658,14.2515024637027,12.7820753728627,13.5649369961584,600,600,600,600,600,600,600,600,600,0,0.972861538549122,0.972861538549137,0.972861538549135,0.597934788245759,0.597934788245759,0.597934788245798,0.187463375151674,0.187463375151684,0.187463375151652,"C-Const",6,0,0,0,0,0,1,0,0,0,76,76,1,0.00520614383402042,0.00486393078118588,0.0350148708369643,0.0113985398093108,0.00425059925476413,0.0507544479053404,0.0387296740041065,0.0351046036020259,0.814677189972282,0.814677189972282,76,1,0.00520614383402069,0.00486393078118586,0.0350148708369662,0.0113985398093107,0.00425059925476435,0.0507544479053402,0.0387296740041086,0.0351046036020257,0.814677189972278,0.814677189972278
139.7078,14.88126,-34.92052,380.3041,1.281734,-189.7394,396.785,"False",1,2,"Const",0,1,0,-0.0071438214382172,-4.95313945393911,"C",0,1,0,1,-189.606272595817,-188.9406355749,-189.295641986055,-189.47055600387,-188.126336023217,-188.843253346232,-189.455163296995,-188.03397978197,-188.791944323317,397.05384399613,398.398063976783,397.681146653768,396.651872595817,395.9862355749,396.341241986055,396.880966122485,397.360796734912,397.104887074951,12.9923766144754,12.1360489309415,12.5777597006738,12.9443873356414,11.8243631570875,12.411731698829,12.8793690039336,11.3904108238866,12.1841847728227,600,600,600,600,600,600,600,600,600,0,0.896946487390084,0.89694648739007,0.896946487390087,0.673849839404827,0.673849839404784,0.673849839404836,0.111548323992631,0.111548323992651,0.111548323992643,"C-Const",6,0,0,0,0,0,1,0,0,0,77,77,1,0.00533896083564149,0.00650800263437889,0.0359730832595259,0.0109830236319695,0.00532449553598196,0.0489194476399711,0.0381702292815549,0.045051402442919,0.803731354738057,0.803731354738057,77,1,0.0053389608356415,0.00650800263437853,0.035973083259524,0.0109830236319702,0.00532449553598197,0.0489194476399684,0.0381702292815571,0.0450514024429191,0.803731354738059,0.803731354738059
140.8189,14.95514,-18.64027,377.2245,1.404268,-188.4671,397.0886,"False",1,2,"Const",0,1,0,0.0074943749437467,-5.23498698418887,"C",0,1,0,1,-188.309998376404,-187.524490258426,-187.943427921348,-188.211524023305,-186.93364413983,-187.615180077683,-188.175292870391,-186.716257222344,-187.494409567969,397.344175976695,398.62205586017,397.940519922317,396.931498376404,396.145990258426,396.564927921348,397.15823188285,397.506391297097,397.320706276165,11.6644243646318,10.7051242542673,11.2019884043291,11.6547485243611,10.6417052085923,11.1683676323052,11.5698126156074,10.0702678470639,10.8700094242934,600,600,600,600,600,600,600,600,600,0,0.807802437674111,0.807802437674202,0.807802437674131,0.762993889120764,0.762993889120745,0.762993889120756,0.0224042742766658,0.0224042742766856,0.0224042742766906,"C-Const",6,0,0,0,0,0,1,0,0,0,78,78,1,0.00544135485152146,0.0090660186896685,0.0367477593691387,0.0104945232329378,0.00692368288832406,0.0467615474377954,0.0373345893642906,0.0600848035927534,0.78714572057357,0.78714572057357,78,1,0.00544135485152177,0.00906601868966799,0.0367477593691366,0.0104945232329378,0.00692368288832406,0.0467615474377954,0.0373345893642927,0.0600848035927534,0.78714572057357,0.78714572057357
141.93,15.02977,-2.375687,373.4724,1.298388,-187.1563,397.4636,"False",1,2,"Const",0,1,0,-0.0619174691746922,2.54391367499916,"C",0,1,0,1,-187.010696961584,-186.282681769505,-186.670956538614,-186.894002925666,-185.582517553997,-186.281976418887,-186.867871064228,-185.425726385368,-186.194870214093,397.725897074334,399.037382446003,398.337923581112,397.317996961584,396.589981769505,396.978256538614,397.546115144122,397.958690864729,397.738650480405,10.3167583943041,9.43584523763868,9.88713054959909,10.2841221233712,9.21960735825982,9.77313822566955,10.2106633247403,8.71596385588986,9.51292925727864,600,600,600,600,600,600,600,600,600,0,0.860861939982691,0.860861939982708,0.860861939982671,0.70993438681222,0.709934386812235,0.709934386812212,0.0754637765852374,0.075463776585233,0.0754637765852182,"C-Const",6,0,0,0,0,0,1,0,0,0,79,79,1,0.00452449805733739,0.00625825285861758,0.0305017322885192,0.011949593327599,0.0065626056049351,0.0532323121398431,0.037899749313159,0.0507129174742125,0.798358338935777,0.798358338935777,79,1,0.00452449805733785,0.0062582528586175,0.0305017322885223,0.0119495933275995,0.00656260560493502,0.0532323121398455,0.0378997493131628,0.0507129174742119,0.798358338935768,0.798358338935768
143.0411,15.07647,13.81407,369.2743,1.266675,-185.7821,397.9245,"False",1,2,"Const",0,1,0,0.037378273782738,2.57617997781031,"C",0,1,0,1,-185.648433759864,-184.980102559187,-185.336545866215,-185.513523500194,-184.170641001164,-184.886845000647,-185.497671430904,-184.075528585426,-184.834004769681,398.193076499806,399.535958998836,398.819754999353,397.790833759864,397.122502559187,397.478945866215,398.019895959465,398.496875756788,398.242486531549,8.89520210713135,8.11754649880639,8.50826614665878,8.83477608012878,7.71144917094656,8.29574704412157,8.77553939166006,7.29433942776598,8.08344995130521,600,600,600,600,600,600,600,600,600,0,0.92501891183352,0.925018911833534,0.925018911833509,0.64577741496137,0.64577741496132,0.645777414961388,0.139620748436077,0.139620748436003,0.139620748436092,"C-Const",6,0,0,0,0,0,1,0,0,0,80,80,1,0.00610263593633155,0.00673941618585268,0.041052175014837,0.0102339711665469,0.00450253058137087,0.0455767725643186,0.0383241736625815,0.0410207872402015,0.806447537647959,0.806447537647959,80,1,0.00610263593633188,0.00673941618585266,0.0410521750148369,0.0102339711665474,0.00450253058137085,0.0455767725643184,0.0383241736625835,0.0410207872402014,0.806447537647957,0.806447537647957
144.1522,15.06697,29.89983,364.7089,1.38145,-184.4906,398.3997,"False",1,2,"Const",0,1,0,-0.0222392223922239,1.65959943947541,"C",0,1,0,1,-184.364768186819,-183.735609120915,-184.07116062273,-184.218264995288,-182.856589971726,-183.582816650959,-184.209053543024,-182.801321258146,-183.552111810081,398.672035004712,400.033710028274,399.307483349041,398.273868186819,397.644709120915,397.98026062273,398.503293400197,399.021260401184,398.745011333991,7.55733117583921,6.8875865989378,7.21377377020545,7.47138326796982,6.29989918739928,6.90890079001936,7.4254619821209,5.96525238674255,6.74185700157926,600,600,600,600,600,600,600,600,600,0,0.983901067257248,0.983901067257246,0.983901067257248,0.586895259537642,0.58689525953769,0.586895259537623,0.198502903859807,0.198502903859825,0.198502903859804,"C-Const",6,0,0,0,0,0,1,0,0,0,81,81,1,0.00521025752515419,0.0046790609892692,0.0349768358281949,0.0114361787273736,0.00410488482532622,0.0509178210035907,0.0388166408593754,0.0338494551388031,0.816008865102913,0.816008865102913,81,1,0.00521025752515473,0.00467906098926915,0.0349768358281966,0.0114361787273741,0.00410488482532641,0.0509178210035931,0.0388166408593794,0.0338494551388028,0.816008865102904,0.816008865102904
145.2633,15.0349,45.81419,359.6156,1.217255,-183.2465,398.7526,"False",1,2,"Const",0,1,0,-0.120759305124281,-4.3643436227166,"C",0,1,0,1,-183.100308768438,-182.36935261063,-182.759195894794,-182.984530299816,-181.674681798896,-182.373267666053,-182.957886637347,-181.514819824083,-182.284455457824,399.014569700184,400.324418201104,399.625832333947,398.606408768438,397.87545261063,398.265295894794,398.834467740278,399.243806441669,399.025492467594,6.26357372133732,5.55616755738735,5.89664216076328,6.19944170716289,5.10640071215176,5.66622694848189,6.14113577132242,4.66456372246051,5.45047686929495,600,600,600,600,600,600,600,600,600,0,0.932243306299498,0.932243306299465,0.932243306299494,0.638553020495385,0.638553020495385,0.638553020495378,0.146845142902054,0.146845142902112,0.14684514290208,"C-Const",6,0,0,0,0,0,1,0,0,0,82,82,1,0.00388170372966536,0.00417748723531205,0.0260748555154706,0.0133528111606209,0.00572973985476753,0.0594630200294481,0.038450302165104,0.0401284331531265,0.808741647156485,0.808741647156485,82,1,0.00388170372966557,0.0041774872353118,0.0260748555154705,0.0133528111606216,0.00572973985476751,0.0594630200294479,0.0384503021651061,0.0401284331531263,0.808741647156482,0.808741647156482
146.3745,15.04248,61.47008,353.8613,1.113092,-182.1552,398.9211,"False",1,2,"Const",0,1,0,-0.0184646293313707,-7.05913106926793,"C",0,1,0,1,-181.977922515748,-181.09153509449,-181.564275052495,-181.91318203873,-180.703092232378,-181.348473462432,-181.858713347151,-180.376280082905,-181.166911157169,399.16311796127,400.373207767622,399.727826537568,398.743822515748,397.85743509449,398.330175052495,398.966878430317,399.195770581903,399.073694767724,5.1325330681222,4.30179284975542,4.70376528339011,5.11993859582959,4.21078079462623,4.65778841728757,5.03402013897632,3.53499647916572,4.33439169765839,600,600,600,600,600,600,600,600,600,0,0.813931799746828,0.813931799746834,0.813931799746819,0.756864527048072,0.756864527047986,0.756864527048037,0.0285336363493768,0.0285336363494741,0.0285336363493846,"C-Const",6,0,0,0,0,0,1,0,0,0,83,83,1,0.00507418580306899,0.0082727316302219,0.0341739950069355,0.0109845606355493,0.00709501842126852,0.0489410784335378,0.0374520961185515,0.058998414694137,0.789007919256729,0.789007919256729,83,1,0.00507418580306898,0.00827273163022141,0.0341739950069355,0.0109845606355499,0.00709501842126851,0.0489410784335377,0.0374520961185535,0.0589984146941369,0.789007919256728,0.789007919256728
147.4856,14.50776,76.49474,347.4645,1.176206,-180.8441,399.1224,"False",1,2,"Const",0,1,0,0.0713828638286387,-0.0485701977844607,"C",0,1,0,1,-180.666617418455,-179.779204510732,-180.252491394851,-180.602232405543,-179.39289443326,-180.037874685144,-180.547574646858,-179.064947881146,-179.855682156192,399.364267594457,400.57360556674,399.928625314856,398.944917418455,398.057504510732,398.530791394851,399.167927079237,399.395562475422,399.27415693079,3.81027584118496,3.07972792069461,3.40723430703833,3.79379924319819,2.95516299654464,3.34538707211941,3.70832409212027,2.21032069691197,3.00900829355208,600,600,600,600,600,600,600,600,600,0,0.82224557568494,0.822245575685021,0.822245575684939,0.748550751109957,0.748550751110008,0.748550751109941,0.0368474122874928,0.0368474122875018,0.0368474122874747,"C-Const",6,0,0,0,0,0,1,0,0,0,84,84,1,0.00657416688115809,0.0104081066233308,0.0441815748224728,0.00943429133666829,0.0059210286518553,0.0420309297311487,0.0373737335584131,0.0571925173944664,0.786883651000487,0.786883651000487,84,1,0.00657416688115845,0.0104081066233307,0.0441815748224727,0.00943429133666827,0.00592102865185529,0.0420309297311486,0.0373737335584152,0.0571925173944663,0.786883651000485,0.786883651000485
148.5967,14.50628,76.64162,347.3961,1.271719,-179.3801,399.3581,"False",1,2,"Const",0,1,0,0.101744217442175,0.41722420362514,"C",0,1,0,1,-179.204383372878,-178.325800237269,-178.794377909594,-179.136946412831,-177.921178476989,-178.569588042772,-179.083914031038,-177.602984186229,-178.392813436794,399.601253587168,400.817021523011,400.168611957228,399.182383372878,398.303800237269,398.772377909594,399.405785131752,399.644210790509,399.517050439172,2.34174474333385,1.91318181508975,2.018117937528,2.30948776169825,1.66134172541479,1.8901545628458,2.22837593997665,0.742704503285492,1.5315905565422,600,600,600,600,600,600,600,600,600,0,0.85541169657804,0.855411696578016,0.855411696578023,0.715384630216879,0.715384630216902,0.715384630216874,0.0700135331805675,0.070013533180596,0.0700135331805865,"C-Const",6,0,0,0,0,0,1,0,0,0,85,85,1,0.00726006733594777,0.0102249556642731,0.0484859134542954,0.00901668413103549,0.00504584440323869,0.0401608792842014,0.0376326228603642,0.0512956638045728,0.790877369062071,0.790877369062071,85,1,0.00726006733594816,0.010224955664273,0.0484859134542953,0.00901668413103547,0.00504584440323868,0.0401608792842013,0.0376326228603663,0.0512956638045727,0.790877369062069,0.790877369062069
149.7078,14.50628,76.64162,347.3961,1.402302,-177.9251,399.5912,"False",1,2,"Const",0,1,0,0.0908496084960851,-0.0441859835060169,"C",0,1,0,1,-177.749195907317,-176.869675443899,-177.338753024388,-177.682081996187,-176.466991977123,-177.11503998729,-177.628877344779,-176.147764068671,-176.937691149262,399.834218003813,401.049308022877,400.40126001271,399.415295907316,398.535775443899,399.004853024388,399.638656701672,399.87594021003,399.749389005572,0.921050488474311,1.46502462911477,0.945542248868843,0.836629690495933,1.12070896494849,0.632008122361586,0.7681031015876,0.772131723225387,0.181323060387608,600,600,600,600,600,600,600,600,600,0,0.95074909568296,0.950749095682916,0.950749095682939,0.620047231111946,0.620047231111981,0.620047231111918,0.165350932285523,0.165350932285581,0.165350932285508,"C-Const",6,0,0,0,0,0,1,0,0,0,86,86,1,0.0072988932994562,0.00738578347991536,0.0492329019970809,0.00933467371334115,0.00375638283877563,0.0415429373770292,0.0385385108172513,0.0376692603596628,0.805240656117487,0.805240656117487,86,1,0.0072988932994566,0.00738578347991492,0.0492329019970808,0.00933467371334113,0.00375638283877562,0.0415429373770291,0.0385385108172535,0.0376692603596627,0.805240656117486,0.805240656117486
150.8189,14.50628,76.64162,347.3961,1.473605,-176.4635,399.8394,"False",1,2,"Const",0,1,0,-0.0280231302313046,0.535886659443651,"C",0,1,0,1,-176.289876512162,-175.42175907297,-175.884755040539,-176.218847420878,-174.995584525271,-175.647991402928,-176.167734156645,-174.688904939867,-175.477613855482,400.084052579122,401.307315474729,400.654908597072,399.665776512162,398.79765907297,399.260655040539,399.889625152108,400.140750912647,400.006817173693,0.760183786039942,2.24612846501442,1.45002727969511,0.648987338609517,2.02606123896905,1.25708513458115,0.759079028784457,2.24388559905406,1.44809681644608,600,600,600,600,600,600,600,600,600,0,2.75660857816465,2.75660857816461,2.75660857816464,1.95578040222003,1.95578040221994,1.95578040222001,2.74117856561748,2.74117856561745,2.74117856561748,"C-Const",6,0,0,0,0,0,1,0,0,0,87,87,1,0.00149460551593886,0.000674283103451417,0.0385651757681542,0.00322009603296221,0.00057590185100854,0.0542075111160112,0.01106066220133,0.00481965920914413,0.885382105201999,0.885382105201999,87,1,0.00149460551593898,0.000674283103451398,0.0385651757681542,0.00322009603296212,0.000575901851008556,0.0542075111160112,0.0110606622013303,0.00481965920914426,0.885382105201999,0.885382105201999
151.93,14.50628,76.64162,347.3961,1.340029,-175.0498,400.0815,"False",1,2,"Const",0,1,0,-0.0154369543695438,0.0801096413397783,"C",0,1,0,2,-174.876518749368,-174.01011249621,-174.472195831228,-174.804904903725,-173.58042942235,-174.233483012417,-174.754104669371,-173.275628016223,-174.064148897902,400.326395096275,401.55087057765,400.897816987583,399.908218749368,399.04181249621,399.503895831228,400.132138635881,400.385331815288,400.250295452938,23.0476345513839,22.1715163945739,22.6306291589624,22.9943842633107,21.8372533676453,22.4493401591071,22.9328770130593,21.4456633687703,22.2386302426733,600,600,600,600,600,600,600,600,600,0,0.910101303384191,0.910101303384211,0.910101303384194,0.660695023410693,0.660695023410685,0.660695023410679,0.124703139986754,0.124703139986692,0.12470313998675,"C-Const",6,0,0,0,0,0,1,0,0,0,88,88,1,0.00522499111666444,0.0060838162096916,0.0352196953558251,0.0111667438320667,0.0051729634252204,0.0497359408946384,0.0382749393514495,0.0431582508149196,0.805962658999524,0.805962658999524,88,1,0.00522499111666422,0.00608381620969101,0.0352196953558217,0.0111667438320662,0.00517296342522048,0.0497359408946364,0.0382749393514479,0.0431582508149153,0.805962658999537,0.805962658999537
153.0411,14.50628,76.64162,347.3961,1.439301,-173.6158,400.2977,"False",1,2,"Const",0,1,0,-0.0220524705247053,-1.144047163682,"C",0,1,0,2,-173.437663700625,-172.546982203753,-173.022012335418,-173.374413465899,-172.167480795396,-172.811178219664,-173.319152559587,-171.835915357522,-172.626975198624,400.539086534101,401.746019204604,401.102321780336,400.119563700626,399.228882203753,399.703912335418,400.342424669887,400.566048019319,400.446782232955,21.6028917516151,20.7136147579801,21.1793237390465,21.5551427693919,20.4129694802892,21.0165311116329,21.4906803888577,20.0010076147729,20.7953149977773,600,600,600,600,600,600,600,600,600,0,0.897092178262487,0.897092178262424,0.897092178262511,0.6737041485324,0.67370414853234,0.673704148532403,0.111694014865038,0.111694014865069,0.11169401486505,"C-Const",6,0,0,0,0,0,1,0,0,0,89,89,1,0.00511252808363375,0.00623029346149167,0.0344711409282031,0.0112635581517959,0.00545778212051493,0.0501698081728757,0.0381788867402703,0.0450420305061941,0.804073971835021,0.804073971835021,89,1,0.00511252808363408,0.00623029346149136,0.0344711409282033,0.0112635581517953,0.00545778212051465,0.0501698081728731,0.0381788867402706,0.0450420305061918,0.804073971835026,0.804073971835026
154.1522,14.50628,76.64162,347.3961,1.291024,-172.2433,400.536,"False",1,2,"Const",0,1,0,-0.133450634506346,1.27602996504257,"C",0,1,0,2,-172.070583332896,-171.206999997378,-171.667577776321,-171.998006394489,-170.771538366934,-171.425654648297,-171.947722101629,-170.469832609771,-171.258040338762,400.781293605511,402.007761633066,401.353645351703,400.363283332896,399.499699997378,399.960277776321,400.587319645306,400.843917871834,400.707065484352,20.2307913220399,19.3844427014436,19.826204330038,20.1696683716748,18.9984274899273,19.6175192237566,20.112191864844,18.629242695284,19.4198229938122,600,600,600,600,600,600,600,600,600,0,0.92847975870548,0.928479758705413,0.92847975870548,0.642316568089403,0.642316568089352,0.64231656808944,0.143081595308026,0.143081595307955,0.143081595308037,"C-Const",6,0,0,0,0,0,1,0,0,0,90,90,1,0.0037271352197727,0.00406892800330791,0.025107849385088,0.0136230948799774,0.00592243354543221,0.0606715074984015,0.0383786938434656,0.0405951669499208,0.807905190674634,0.807905190674634,90,1,0.00372713521977289,0.00406892800330811,0.0251078493850893,0.0136230948799773,0.0059224335454325,0.0606715074984044,0.0383786938434675,0.0405951669499204,0.807905190674628,0.807905190674628
155.2511,14.18397,81.0446,352.0099,1.520514,-170.8625,400.6611,"False",1,3,"Const",0,1,0,-0.379236792367926,0,"C",0,1,0,2,-171.140842855164,-172.532557130982,-171.790309517212,-170.750583714414,-170.191002286485,-170.489445714714,-170.980181355918,-171.568588135509,-171.254771186394,400.773016285586,401.332597713515,401.034154285286,400.939442855164,402.331157130982,401.588909517212,400.937054884844,402.316829309064,401.580949616147,19.3013397956286,20.6909056360013,19.9478132059898,18.9087873413872,18.3879498838463,18.6525330117035,19.1383973566562,19.7619024612406,19.4174415569495,600,600,600,600,600,600,600,600,600,0,2.73494511589117,2.73494511589122,2.73494511589116,1.16414878909629,1.16414878909627,1.16414878909629,1.94954695249374,1.94954695249378,1.94954695249373,"C-Const",6,0,0,0,0,0,0,0,0,0,91,91,1,0.00393224256328069,0.000450486719587084,0.026393759547314,0.042000294139964,0.00198046392422086,0.186878744307771,0.0803447288698883,0.00907392820995171,0.648945351718023,0.648945351718023,91,1,0.00393224256328062,0.000450486719587076,0.026393759547312,0.0420002941399657,0.00198046392422083,0.186878744307762,0.0803447288698892,0.00907392820995157,0.648945351718031,0.648945351718031
156.3622,13.518,66.955,356.9058,1.099144,-169.4464,400.7217,"False",1,3,"Const",0,1,0,-0.056537215372154,-69.3545036540263,"R",0,0,1,2,-169.243531527186,-168.229189163113,-168.770171757285,-169.225392346879,-168.120354081276,-168.709707822931,-169.146674316968,-167.648045901809,-168.447314389894,400.942707653121,402.047745918724,401.458392177069,400.518831527186,399.504489163113,400.045471757285,400.7345263374,400.798658024398,400.764454457999,17.4017790360049,16.412488521173,16.9307683722997,17.3932338941851,16.3580502975436,16.9014739971428,17.3083636046378,15.8087001923657,16.608513113797,600,600,600,600,600,600,600,600,600,0,0.805299451651765,0.805299451651734,0.805299451651791,0.765496875143133,0.765496875143169,0.765496875143146,0.0199012882543103,0.019901288254288,0.0199012882542991,"R-Const",5,0,0,0,0,0,1,0,0,0,92,92,1,0.0045232535409826,0.00760307709759281,0.0305672240850695,0.0116836160649706,0.00777516417322762,0.0520612112770318,0.0373571771958816,0.0606476650323775,0.787781611532866,0.0606476650323775,92,1,0.00452325354098286,0.00760307709759238,0.0305672240850695,0.0116836160649699,0.00777516417322807,0.0520612112770318,0.0373571771958816,0.0606476650323775,0.787781611532866,0.0606476650323775
157.4733,14.12331,52.15758,361.8756,1.394877,-167.9852,400.8645,"False",1,3,"Const",0,1,0,0.148644136441365,3.13127433276126,"C",0,1,0,2,-167.794706697229,-166.842240183374,-167.350222324097,-167.753440854335,-166.59464512601,-167.21266951445,-167.686622430338,-166.193734582029,-166.989941434461,401.096259145665,402.25505487399,401.63703048555,400.674006697229,399.721540183374,400.229522324096,400.893679357342,401.03957614405,400.961764524472,15.9520313426833,15.0421013258685,15.51599630005,15.9171115027923,14.8184891302706,15.3959926592739,15.8456007730661,14.3512846709405,15.1481134420973,600,600,600,600,600,600,600,600,600,0,0.866723932458958,0.866723932458945,0.866723932458945,0.704072394335962,0.704072394335878,0.704072394335951,0.0813257690614917,0.0813257690615149,0.0813257690614643,"C-Const",6,0,0,0,0,1,0,0,0,0,93,93,1,0.0138401644664825,0.0187577315405331,0.0933594893892552,0.0140241857832206,0.00754750286022501,0.0624736418865363,0.0631351545874163,0.215188579977966,0.511673549508365,0.511673549508365,93,1,0.0138401644664825,0.0187577315405331,0.0933594893892501,0.0140241857832198,0.00754750286022503,0.0624736418865364,0.0631351545874201,0.215188579977966,0.511673549508367,0.511673549508367
158.5844,13.82195,37.43871,366.5667,1.429461,-166.5698,401.0088,"False",1,3,"Const",0,1,0,0.0185418336537728,0.239519759567242,"C",0,1,0,2,-166.380277206803,-165.43266324082,-165.938057356011,-166.337246541933,-165.174479251598,-165.794621806443,-166.271347020554,-164.779082123322,-165.574956735179,401.241353458067,402.404120748402,401.783978193557,400.819277206803,399.87166324082,400.377057356011,401.039227274929,401.191363649572,401.110224249762,14.5380484438528,13.6500931145127,14.1107857439869,14.4977556318429,13.3904980065639,13.9719180380543,14.4288978169603,12.9365559548781,13.7322639490947,600,600,600,600,600,600,600,600,600,0,0.879154589111894,0.879154589111917,0.879154589111906,0.691641737683005,0.691641737682966,0.691641737683013,0.0937564257144627,0.0937564257145326,0.0937564257144366,"C-Const",6,0,0,0,0,0,1,0,0,0,94,94,1,0.00571992920811226,0.00742150787575806,0.0385657858966894,0.0104750984823593,0.00540036712553666,0.046660851293096,0.0379847227255755,0.0476954917154191,0.800076245677454,0.800076245677454,94,1,0.00571992920811226,0.00742150787575764,0.0385657858966872,0.0104750984823593,0.00540036712553666,0.046660851293096,0.0379847227255777,0.0476954917154191,0.800076245677454,0.800076245677454
159.6956,13.76354,22.80733,370.915,1.43608,-165.1435,401.1006,"False",1,3,"Const",0,1,0,-0.0160254674077999,-2.13858026948836,"C",0,1,0,2,-164.945431106168,-163.955086637005,-164.483270353892,-164.918180863449,-163.791585180695,-164.392436211497,-164.844119452643,-163.347216715857,-164.145564842143,401.325919136551,402.452514819305,401.851663788503,400.902531106168,399.912186637005,400.440370353892,401.119868831415,401.216212988491,401.16482943805,13.1042822282166,12.1849934202086,12.6614800458917,13.0773614025421,12.0102071533421,12.5683586334491,13.0014202077624,11.5048838700302,12.3029316002073,600,600,600,600,600,600,600,600,600,0,0.847890000053979,0.847890000054021,0.847890000053964,0.722906326740928,0.722906326740938,0.722906326740911,0.06249183665653,0.0624918366564696,0.0624918366565229,"C-Const",6,0,0,0,0,0,1,0,0,0,95,95,1,0.00514347860526427,0.00744624203494245,0.0347033247220368,0.0110319509321417,0.00633650086412939,0.049147767415771,0.0377556055070578,0.0528536391470851,0.795581490771572,0.795581490771572,95,1,0.00514347860526458,0.00744624203494204,0.0347033247220349,0.0110319509321417,0.0063365008641294,0.0491477674157711,0.03775560550706,0.0528536391470822,0.795581490771574,0.795581490771574
